thisN,thisTrialN,thisRepN,mouse.x,mouse.y,mouse.leftButton,mouse.midButton,mouse.rightButton,mouse.time,mouse.clicked_name,Trials.thisRepN,Trials.thisTrialN,Trials.thisN,Trials.thisIndex,thisRow.t,notes,num_distr,trial.started,Fixation.started,Target.started,mouse.started,Fixation.stopped,trial.stopped,Trials.mouse.x,Trials.mouse.y,Trials.mouse.leftButton,Trials.mouse.midButton,Trials.mouse.rightButton,Trials.mouse.time,Trials.mouse.clicked_name,participant,session,date,expName,psychopyVersion,frameRate,expStart,
0,0,0,[-0.13078703703703703],[-0.05555555555555555],[1],[0],[0],[2.275076299905777],['Target'],0,0,0,0,0.081565200118348,,10,0.059716599993407726,0.081565200118348,0.081565200118348,0.059466199949383736,1.082108300179243,2.3356270999647677,[-0.13078703703703703],[-0.05555555555555555],[1],[0],[0],[2.275076299905777],['Target'],981936,001,2024-10-04_12h03.15.693,Visual Search Task,2024.2.1post4,60.05014181679504,2024-10-04 12h03.26.712753 +0530,
1,0,1,[-0.29398148148148145],[-0.35532407407407407],[1],[0],[0],[1.6708635000977665],['Target'],1,0,1,0,2.397267100168392,,10,2.3795486001763493,2.397267100168392,2.397267100168392,0.04357969993725419,3.398532500024885,4.051215100102127,[-0.29398148148148145],[-0.35532407407407407],[1],[0],[0],[1.6708635000977665],['Target'],981936,001,2024-10-04_12h03.15.693,Visual Search Task,2024.2.1post4,60.05014181679504,2024-10-04 12h03.26.712753 +0530,
2,0,2,[-0.35532407407407407],[0.29976851851851855],[1],[0],[0],[1.575082999886945],['Target'],2,0,2,0,4.096965300152078,,5,4.074804000090808,4.096965300152078,4.096965300152078,0.02326579997316003,5.098284600069746,5.650694000069052,[-0.35532407407407407],[0.29976851851851855],[1],[0],[0],[1.575082999886945],['Target'],981936,001,2024-10-04_12h03.15.693,Visual Search Task,2024.2.1post4,60.05014181679504,2024-10-04 12h03.26.712753 +0530,
3,0,3,[0.35185185185185186],[-0.46296296296296297],[1],[0],[0],[1.8527196999639273],['Target'],3,0,3,0,5.69651859998703,,5,5.679826700128615,5.69651859998703,5.69651859998703,0.02888090000487864,6.698206500150263,7.533378500025719,[0.35185185185185186],[-0.46296296296296297],[1],[0],[0],[1.8527196999639273],['Target'],981936,001,2024-10-04_12h03.15.693,Visual Search Task,2024.2.1post4,60.05014181679504,2024-10-04 12h03.26.712753 +0530,
4,0,4,[0.2048611111111111],[-0.29050925925925924],[1],[0],[0],[1.508400399936363],['Target'],4,0,4,0,7.579916700022295,,5,7.557981600053608,7.579916700022295,7.579916700022295,0.02432339987717569,8.581443600123748,9.067134100012481,[0.2048611111111111],[-0.29050925925925924],[1],[0],[0],[1.508400399936363],['Target'],981936,001,2024-10-04_12h03.15.693,Visual Search Task,2024.2.1post4,60.05014181679504,2024-10-04 12h03.26.712753 +0530,
5,0,5,[-0.041666666666666664],[-0.4236111111111111],[1],[0],[0],[1.2582906000316143],['Target'],5,0,5,0,9.11297050002031,,5,9.090548100182787,9.11297050002031,9.11297050002031,0.02315340004861355,10.114381100051105,10.349784600082785,[-0.041666666666666664],[-0.4236111111111111],[1],[0],[0],[1.2582906000316143],['Target'],981936,001,2024-10-04_12h03.15.693,Visual Search Task,2024.2.1post4,60.05014181679504,2024-10-04 12h03.26.712753 +0530,
6,0,6,[-0.009259259259259259],[0.3599537037037037],[1],[0],[0],[1.5755282000172883],['Target'],6,0,6,0,10.396294299978763,,5,10.372894300147891,10.396294299978763,10.396294299978763,0.022820299956947565,11.397836700081825,11.949086500098929,[-0.009259259259259259],[0.3599537037037037],[1],[0],[0],[1.5755282000172883],['Target'],981936,001,2024-10-04_12h03.15.693,Visual Search Task,2024.2.1post4,60.05014181679504,2024-10-04 12h03.26.712753 +0530,
7,0,7,[-0.30787037037037035],[-0.06944444444444445],[1],[0],[0],[1.8344150001648813],['Target'],7,0,7,0,11.996481199981645,,10,11.981551800156012,11.996481199981645,11.996481199981645,0.03230400010943413,12.998138800030574,13.81675160001032,[-0.30787037037037035],[-0.06944444444444445],[1],[0],[0],[1.8344150001648813],['Target'],981936,001,2024-10-04_12h03.15.693,Visual Search Task,2024.2.1post4,60.05014181679504,2024-10-04 12h03.26.712753 +0530,
8,0,8,[-0.03125],[-0.020833333333333332],[1],[0],[0],[1.675231099827215],['Target'],8,0,8,0,13.863176699960604,,5,13.840745400171727,13.863176699960604,13.863176699960604,0.023671000031754375,14.86459180014208,15.51693020015955,[-0.03125],[-0.020833333333333332],[1],[0],[0],[1.675231099827215],['Target'],981936,001,2024-10-04_12h03.15.693,Visual Search Task,2024.2.1post4,60.05014181679504,2024-10-04 12h03.26.712753 +0530,
9,0,9,[0.11805555555555555],[0.07060185185185185],[1],[0],[0],[1.726679300190881],['Target'],9,0,9,0,15.579609100008383,,10,15.555765500059351,15.579609100008383,15.579609100008383,0.03856660006567836,16.580998199991882,17.283238200005144,[0.11805555555555555],[0.07060185185185185],[1],[0],[0],[1.726679300190881],['Target'],981936,001,2024-10-04_12h03.15.693,Visual Search Task,2024.2.1post4,60.05014181679504,2024-10-04 12h03.26.712753 +0530,
10,0,10,[-0.46064814814814814],[-0.38773148148148145],[1],[0],[0],[1.7927747999783605],['Target'],10,0,10,0,17.345805200049654,,10,17.32245060009882,17.345805200049654,17.345805200049654,0.038888800190761685,18.347413800191134,19.116037900093943,[-0.46064814814814814],[-0.38773148148148145],[1],[0],[0],[1.7927747999783605],['Target'],981936,001,2024-10-04_12h03.15.693,Visual Search Task,2024.2.1post4,60.05014181679504,2024-10-04 12h03.26.712753 +0530,
11,0,11,[0.4085648148148148],[0.4791666666666667],[1],[0],[0],[3.7739132000133395],['Target'],11,0,11,0,19.17899280018173,,10,19.158425100147724,19.17899280018173,19.17899280018173,0.04203130002133548,20.18064370006323,22.933235300006345,[0.4085648148148148],[0.4791666666666667],[1],[0],[0],[3.7739132000133395],['Target'],981936,001,2024-10-04_12h03.15.693,Visual Search Task,2024.2.1post4,60.05014181679504,2024-10-04 12h03.26.712753 +0530,
12,0,12,[-0.1076388888888889],[0.33564814814814814],[1],[0],[0],[3.01608520001173],['Target'],12,0,12,0,22.995084600057453,,10,22.964909000089392,22.995084600057453,22.995084600057453,0.031442000064998865,23.996709200087935,25.981825600145385,[-0.1076388888888889],[0.33564814814814814],[1],[0],[0],[3.01608520001173],['Target'],981936,001,2024-10-04_12h03.15.693,Visual Search Task,2024.2.1post4,60.05014181679504,2024-10-04 12h03.26.712753 +0530,
13,0,13,[-0.3773148148148148],[-0.1736111111111111],[1],[0],[0],[1.8457498999778181],['Target'],13,0,13,0,26.04501480003819,,10,26.01845660014078,26.04501480003819,26.04501480003819,0.03632630011998117,27.046387000009418,27.864957200130448,[-0.3773148148148148],[-0.1736111111111111],[1],[0],[0],[1.8457498999778181],['Target'],981936,001,2024-10-04_12h03.15.693,Visual Search Task,2024.2.1post4,60.05014181679504,2024-10-04 12h03.26.712753 +0530,
14,0,14,[-0.33101851851851855],[0.015046296296296295],[1],[0],[0],[1.314912399975583],['Target'],14,0,14,0,27.92798090004362,,10,27.899492600001395,27.92798090004362,27.92798090004362,0.03418030007742345,28.929441299987957,29.215250600129366,[-0.33101851851851855],[0.015046296296296295],[1],[0],[0],[1.314912399975583],['Target'],981936,001,2024-10-04_12h03.15.693,Visual Search Task,2024.2.1post4,60.05014181679504,2024-10-04 12h03.26.712753 +0530,
15,0,15,[0.47453703703703703],[0.30324074074074076],[1],[0],[0],[2.162585499929264],['Target'],15,0,15,0,29.261084200115874,,5,29.236650899983943,29.261084200115874,29.261084200115874,0.02107760007493198,30.262511200038716,31.40004079998471,[0.47453703703703703],[0.30324074074074076],[1],[0],[0],[2.162585499929264],['Target'],981936,001,2024-10-04_12h03.15.693,Visual Search Task,2024.2.1post4,60.05014181679504,2024-10-04 12h03.26.712753 +0530,
16,0,16,[0.07060185185185185],[-0.4548611111111111],[1],[0],[0],[2.418401800096035],['Target'],16,0,16,0,31.444154600147158,,5,31.428374900016934,31.444154600147158,31.444154600147158,0.028077400056645274,32.4457873001229,33.84759890008718,[0.07060185185185185],[-0.4548611111111111],[1],[0],[0],[2.418401800096035],['Target'],981936,001,2024-10-04_12h03.15.693,Visual Search Task,2024.2.1post4,60.05014181679504,2024-10-04 12h03.26.712753 +0530,
17,0,17,[0.11689814814814815],[0.38773148148148145],[1],[0],[0],[2.6674901000224054],['Target'],17,0,17,0,33.927309500053525,,10,33.89654490002431,33.927309500053525,33.927309500053525,0.0486841001547873,34.92876709997654,36.56484780018218,[0.11689814814814815],[0.38773148148148145],[1],[0],[0],[2.6674901000224054],['Target'],981936,001,2024-10-04_12h03.15.693,Visual Search Task,2024.2.1post4,60.05014181679504,2024-10-04 12h03.26.712753 +0530,
18,0,18,[0.047453703703703706],[0.3472222222222222],[1],[0],[0],[1.6264798999764025],['Target'],18,0,18,0,36.626897800015286,,10,36.603535500122234,36.626897800015286,36.626897800015286,0.03834500000812113,37.628470099996775,38.23080980009399,[0.047453703703703706],[0.3472222222222222],[1],[0],[0],[1.6264798999764025],['Target'],981936,001,2024-10-04_12h03.15.693,Visual Search Task,2024.2.1post4,60.05014181679504,2024-10-04 12h03.26.712753 +0530,
19,0,19,[0.19791666666666666],[0.3726851851851852],[1],[0],[0],[1.5209125999826938],['Target'],19,0,19,0,38.27663059998304,,5,38.25849180016667,38.27663059998304,38.27663059998304,0.02733829990029335,39.27834110008553,39.780208700103685,[0.19791666666666666],[0.3726851851851852],[1],[0],[0],[1.5209125999826938],['Target'],981936,001,2024-10-04_12h03.15.693,Visual Search Task,2024.2.1post4,60.05014181679504,2024-10-04 12h03.26.712753 +0530,
20,0,20,[0.30092592592592593],[0.24074074074074073],[1],[0],[0],[1.4082401001360267],['Target'],20,0,20,0,39.82656419998966,,5,39.80366820003837,39.82656419998966,39.82656419998966,0.023187600076198578,40.82720319996588,41.21267889998853,[0.30092592592592593],[0.24074074074074073],[1],[0],[0],[1.4082401001360267],['Target'],981936,001,2024-10-04_12h03.15.693,Visual Search Task,2024.2.1post4,60.05014181679504,2024-10-04 12h03.26.712753 +0530,
21,0,21,[0.3726851851851852],[0.16782407407407407],[1],[0],[0],[1.342139800079167],['Target'],21,0,21,0,41.25872869999148,,5,41.23580040014349,41.25872869999148,41.25872869999148,0.02277250005863607,42.26057990011759,42.578849900048226,[0.3726851851851852],[0.16782407407407407],[1],[0],[0],[1.342139800079167],['Target'],981936,001,2024-10-04_12h03.15.693,Visual Search Task,2024.2.1post4,60.05014181679504,2024-10-04 12h03.26.712753 +0530,
22,0,22,[0.22685185185185186],[0.2951388888888889],[1],[0],[0],[1.4031337997876108],['Target'],22,0,22,0,42.62522210017778,,5,42.60772560001351,42.62522210017778,42.62522210017778,0.028618099866434932,43.62705710018054,44.01167170004919,[0.22685185185185186],[0.2951388888888889],[1],[0],[0],[1.4031337997876108],['Target'],981936,001,2024-10-04_12h03.15.693,Visual Search Task,2024.2.1post4,60.05014181679504,2024-10-04 12h03.26.712753 +0530,
23,0,23,[0.10532407407407407],[-0.09837962962962964],[1],[0],[0],[1.3092658000532538],['Target'],23,0,23,0,44.07541170017794,,10,44.05305950017646,44.07541170017794,44.07541170017794,0.041112400125712156,45.07688090018928,45.363083500182256,[0.10532407407407407],[-0.09837962962962964],[1],[0],[0],[1.3092658000532538],['Target'],981936,001,2024-10-04_12h03.15.693,Visual Search Task,2024.2.1post4,60.05014181679504,2024-10-04 12h03.26.712753 +0530,
24,0,24,[0.27662037037037035],[0.46875],[1],[0],[0],[2.4483802998438478],['Target'],24,0,24,0,45.39174690004438,,5,45.38169990014285,45.39174690004438,45.39174690004438,0.018409699900075793,46.393667299998924,47.83091210015118,[0.27662037037037035],[0.46875],[1],[0],[0],[2.4483802998438478],['Target'],981936,001,2024-10-04_12h03.15.693,Visual Search Task,2024.2.1post4,60.05014181679504,2024-10-04 12h03.26.712753 +0530,
25,0,25,[0.21643518518518517],[0.45717592592592593],[1],[0],[0],[1.5947529999539256],['Target'],25,0,25,0,47.8921011001803,,10,47.866898000007495,47.8921011001803,47.8921011001803,0.03571869991719723,48.89355040015653,49.46243289997801,[0.21643518518518517],[0.45717592592592593],[1],[0],[0],[1.5947529999539256],['Target'],981936,001,2024-10-04_12h03.15.693,Visual Search Task,2024.2.1post4,60.05014181679504,2024-10-04 12h03.26.712753 +0530,
26,0,26,[0.3854166666666667],[0.3333333333333333],[1],[0],[0],[3.5385829000733793],['Target'],26,0,26,0,49.525009700097144,,10,49.50618340005167,49.525009700097144,49.525009700097144,0.0434296999592334,50.52675690012984,53.04561180016026,[0.3854166666666667],[0.3333333333333333],[1],[0],[0],[3.5385829000733793],['Target'],981936,001,2024-10-04_12h03.15.693,Visual Search Task,2024.2.1post4,60.05014181679504,2024-10-04 12h03.26.712753 +0530,
27,0,27,[0.05787037037037037],[0.3194444444444444],[1],[0],[0],[2.2568046001251787],['Target'],27,0,27,0,53.1082101999782,,10,53.08717539999634,53.1082101999782,53.1082101999782,0.0412430998403579,54.109704500064254,55.34470700006932,[0.05787037037037037],[0.3194444444444444],[1],[0],[0],[2.2568046001251787],['Target'],981936,001,2024-10-04_12h03.15.693,Visual Search Task,2024.2.1post4,60.05014181679504,2024-10-04 12h03.26.712753 +0530,
28,0,28,[0.010416666666666666],[0.13194444444444445],[1],[0],[0],[1.714806200005114],['Target'],28,0,28,0,55.40792850009166,,10,55.378547200001776,55.40792850009166,55.40792850009166,0.03351299976930022,56.408541599987075,57.0941429999657,[0.010416666666666666],[0.13194444444444445],[1],[0],[0],[1.714806200005114],['Target'],981936,001,2024-10-04_12h03.15.693,Visual Search Task,2024.2.1post4,60.05014181679504,2024-10-04 12h03.26.712753 +0530,
29,0,29,[0.23148148148148148],[0.46412037037037035],[1],[0],[0],[2.999785599997267],['Target'],29,0,29,0,57.156754800118506,,10,57.12864980008453,57.156754800118506,57.156754800118506,0.03418330010026693,58.15875990013592,60.12921140016988,[0.23148148148148148],[0.46412037037037035],[1],[0],[0],[2.999785599997267],['Target'],981936,001,2024-10-04_12h03.15.693,Visual Search Task,2024.2.1post4,60.05014181679504,2024-10-04 12h03.26.712753 +0530,
30,0,30,[0.3472222222222222],[-0.017361111111111112],[1],[0],[0],[1.2108743998687714],['Target'],30,0,30,0,60.173348100157455,,5,60.14917470002547,60.173348100157455,60.173348100157455,0.01961209997534752,61.174618900055066,61.36084740003571,[0.3472222222222222],[-0.017361111111111112],[1],[0],[0],[1.2108743998687714],['Target'],981936,001,2024-10-04_12h03.15.693,Visual Search Task,2024.2.1post4,60.05014181679504,2024-10-04 12h03.26.712753 +0530,
31,0,31,[-0.26851851851851855],[-0.24074074074074073],[1],[0],[0],[1.3919049999676645],['Target'],31,0,31,0,61.40663310000673,,5,61.38445060001686,61.40663310000673,61.40663310000673,0.023334800032898784,62.40808780002408,62.77716440008953,[-0.26851851851851855],[-0.24074074074074073],[1],[0],[0],[1.3919049999676645],['Target'],981936,001,2024-10-04_12h03.15.693,Visual Search Task,2024.2.1post4,60.05014181679504,2024-10-04 12h03.26.712753 +0530,
32,0,32,[-0.14467592592592593],[-0.37037037037037035],[1],[0],[0],[1.6889188999775797],['Target'],32,0,32,0,62.82326740003191,,5,62.803841799963266,62.82326740003191,62.82326740003191,0.026417799992486835,63.824967600172386,64.49351780000143,[-0.14467592592592593],[-0.37037037037037035],[1],[0],[0],[1.6889188999775797],['Target'],981936,001,2024-10-04_12h03.15.693,Visual Search Task,2024.2.1post4,60.05014181679504,2024-10-04 12h03.26.712753 +0530,
33,0,33,[0.08449074074074074],[0.4166666666666667],[1],[0],[0],[2.038359999889508],['Target'],33,0,33,0,64.55636930000037,,10,64.53801860008389,64.55636930000037,64.55636930000037,0.04423230001702905,65.55834300001152,66.57723739999346,[0.08449074074074074],[0.4166666666666667],[1],[0],[0],[2.038359999889508],['Target'],981936,001,2024-10-04_12h03.15.693,Visual Search Task,2024.2.1post4,60.05014181679504,2024-10-04 12h03.26.712753 +0530,
34,0,34,[0.4375],[-0.1261574074074074],[1],[0],[0],[2.3910000000614673],['Target'],34,0,34,0,66.639785700012,,10,66.61834350018762,66.639785700012,66.639785700012,0.040763699915260077,67.64147710008547,69.01010540011339,[0.4375],[-0.1261574074074074],[1],[0],[0],[2.3910000000614673],['Target'],981936,001,2024-10-04_12h03.15.693,Visual Search Task,2024.2.1post4,60.05014181679504,2024-10-04 12h03.26.712753 +0530,
35,0,35,[-0.032407407407407406],[0.12731481481481483],[1],[0],[0],[1.8887226001825184],['Target'],35,0,35,0,69.07277540001087,,10,69.05338430008851,69.07277540001087,69.07277540001087,0.04294429998844862,70.07440430019051,70.94291840004735,[-0.032407407407407406],[0.12731481481481483],[1],[0],[0],[1.8887226001825184],['Target'],981936,001,2024-10-04_12h03.15.693,Visual Search Task,2024.2.1post4,60.05014181679504,2024-10-04 12h03.26.712753 +0530,
36,0,36,[0.1701388888888889],[-0.2789351851851852],[1],[0],[0],[1.477352200075984],['Target'],36,0,36,0,70.98906789999455,,5,70.96426300005987,70.98906789999455,70.98906789999455,0.02101820008829236,71.99075300013646,72.44236910017207,[0.1701388888888889],[-0.2789351851851852],[1],[0],[0],[1.477352200075984],['Target'],981936,001,2024-10-04_12h03.15.693,Visual Search Task,2024.2.1post4,60.05014181679504,2024-10-04 12h03.26.712753 +0530,
37,0,37,[0.03935185185185185],[0.09837962962962964],[1],[0],[0],[1.4254245001357049],['Target'],37,0,37,0,72.50557869998738,,10,72.48329530004412,72.50557869998738,72.50557869998738,0.04064909997396171,73.50703990017064,73.9094911001157,[0.03935185185185185],[0.09837962962962964],[1],[0],[0],[1.4254245001357049],['Target'],981936,001,2024-10-04_12h03.15.693,Visual Search Task,2024.2.1post4,60.05014181679504,2024-10-04 12h03.26.712753 +0530,
38,0,38,[0.40162037037037035],[-0.45949074074074076],[1],[0],[0],[2.264470500173047],['Target'],38,0,38,0,73.97205139999278,,10,73.94452999997884,73.97205139999278,73.97205139999278,0.034689199877902865,74.97363630007021,76.20964780007489,[0.40162037037037035],[-0.45949074074074076],[1],[0],[0],[2.264470500173047],['Target'],981936,001,2024-10-04_12h03.15.693,Visual Search Task,2024.2.1post4,60.05014181679504,2024-10-04 12h03.26.712753 +0530,
39,0,39,"[0.2962962962962963, 0.3275462962962963]","[0.3576388888888889, 0.33449074074074076]","[1, 1]","[0, 0]","[0, 0]","[2.178591600153595, 3.111281300196424]","[None, 'Target']",39,0,39,0,76.27182070002891,,10,76.24628329998814,76.27182070002891,76.27182070002891,0.03636750020086765,77.27336470014416,79.35831280006096,"[0.2962962962962963, 0.3275462962962963]","[0.3576388888888889, 0.33449074074074076]","[1, 1]","[0, 0]","[0, 0]","[2.178591600153595, 3.111281300196424]","[None, 'Target']",981936,001,2024-10-04_12h03.15.693,Visual Search Task,2024.2.1post4,60.05014181679504,2024-10-04 12h03.26.712753 +0530,
40,0,40,[-0.24768518518518517],[0.44675925925925924],[1],[0],[0],[1.6560696999076754],['Target'],40,0,40,0,79.42133290017955,,10,79.40215970017016,79.42133290017955,79.42133290017955,0.04346409998834133,80.4230538001284,81.05899960012175,[-0.24768518518518517],[0.44675925925925924],[1],[0],[0],[1.6560696999076754],['Target'],981936,001,2024-10-04_12h03.15.693,Visual Search Task,2024.2.1post4,60.05014181679504,2024-10-04 12h03.26.712753 +0530,
41,0,41,[-0.11226851851851852],[0.4097222222222222],[1],[0],[0],[1.536971400026232],['Target'],41,0,41,0,81.10439900006168,,5,81.08698520017788,81.10439900006168,81.10439900006168,0.02766180015169084,82.10526189999655,82.62475259997882,[-0.11226851851851852],[0.4097222222222222],[1],[0],[0],[1.536971400026232],['Target'],981936,001,2024-10-04_12h03.15.693,Visual Search Task,2024.2.1post4,60.05014181679504,2024-10-04 12h03.26.712753 +0530,
42,0,42,[0.2835648148148148],[-0.27662037037037035],[1],[0],[0],[1.743658699793741],['Target'],42,0,42,0,82.67025650013238,,5,82.64673320017755,82.67025650013238,82.67025650013238,0.021698799915611744,83.6718189001549,84.39117790013552,[0.2835648148148148],[-0.27662037037037035],[1],[0],[0],[1.743658699793741],['Target'],981936,001,2024-10-04_12h03.15.693,Visual Search Task,2024.2.1post4,60.05014181679504,2024-10-04 12h03.26.712753 +0530,
43,0,43,[-0.1284722222222222],[-0.40162037037037035],[1],[0],[0],[2.992129199905321],['Target'],43,0,43,0,84.4535042999778,,10,84.43055439996533,84.4535042999778,84.4535042999778,0.03910769987851381,85.4550312999636,87.4233948001638,[-0.1284722222222222],[-0.40162037037037035],[1],[0],[0],[2.992129199905321],['Target'],981936,001,2024-10-04_12h03.15.693,Visual Search Task,2024.2.1post4,60.05014181679504,2024-10-04 12h03.26.712753 +0530,
44,0,44,[0.27314814814814814],[-0.1863425925925926],[1],[0],[0],[1.3951185999903828],['Target'],44,0,44,0,87.48661410016939,,10,87.46171870012768,87.48661410016939,87.48661410016939,0.03798549994826317,88.48835630016401,88.85762640018947,[0.27314814814814814],[-0.1863425925925926],[1],[0],[0],[1.3951185999903828],['Target'],981936,001,2024-10-04_12h03.15.693,Visual Search Task,2024.2.1post4,60.05014181679504,2024-10-04 12h03.26.712753 +0530,
45,0,45,[0.09259259259259259],[0.44560185185185186],[1],[0],[0],[1.5940010999329388],['Target'],45,0,45,0,88.92035420006141,,10,88.89583369996399,88.92035420006141,88.92035420006141,0.03787020011804998,89.92175910016522,90.4906115999911,[0.09259259259259259],[0.44560185185185186],[1],[0],[0],[1.5940010999329388],['Target'],981936,001,2024-10-04_12h03.15.693,Visual Search Task,2024.2.1post4,60.05014181679504,2024-10-04 12h03.26.712753 +0530,
46,0,46,[-0.3101851851851852],[0.25578703703703703],[1],[0],[0],[1.323342900024727],['Target'],46,0,46,0,90.53670920012519,,5,90.51584090013057,90.53670920012519,90.53670920012519,0.024917300092056394,91.53821120015346,91.84005650016479,[-0.3101851851851852],[0.25578703703703703],[1],[0],[0],[1.323342900024727],['Target'],981936,001,2024-10-04_12h03.15.693,Visual Search Task,2024.2.1post4,60.05014181679504,2024-10-04 12h03.26.712753 +0530,
47,0,47,[0.017361111111111112],[-0.11226851851851852],[1],[0],[0],[2.1082148000132293],['Target'],47,0,47,0,91.88570139999501,,5,91.86330970004201,91.88570139999501,91.88570139999501,0.02298580016940832,92.88724780012853,93.97238610009663,[0.017361111111111112],[-0.11226851851851852],[1],[0],[0],[2.1082148000132293],['Target'],981936,001,2024-10-04_12h03.15.693,Visual Search Task,2024.2.1post4,60.05014181679504,2024-10-04 12h03.26.712753 +0530,
48,0,48,[0.2199074074074074],[-0.12268518518518519],[1],[0],[0],[2.459876500070095],['Target'],48,0,48,0,94.01908100000583,,5,93.99481649999507,94.01908100000583,94.01908100000583,0.02211729995906353,95.02035620016977,96.45545420004055,[0.2199074074074074],[-0.12268518518518519],[1],[0],[0],[2.459876500070095],['Target'],981936,001,2024-10-04_12h03.15.693,Visual Search Task,2024.2.1post4,60.05014181679504,2024-10-04 12h03.26.712753 +0530,
49,0,49,[-0.02546296296296296],[-0.20949074074074073],[1],[0],[0],[1.195418099872768],['Target'],49,0,49,0,96.50216750008985,,5,96.47617410006933,96.50216750008985,96.50216750008985,0.020433600060641766,97.50345059996471,97.67246320005506,[-0.02546296296296296],[-0.20949074074074073],[1],[0],[0],[1.195418099872768],['Target'],981936,001,2024-10-04_12h03.15.693,Visual Search Task,2024.2.1post4,60.05014181679504,2024-10-04 12h03.26.712753 +0530,
50,0,50,[-0.09027777777777778],[-0.0798611111111111],[1],[0],[0],[1.173174099996686],['Target'],50,0,50,0,97.73542589996941,,10,97.71532259997912,97.73542589996941,97.73542589996941,0.042599599808454514,98.73725280002691,98.88925420003943,[-0.09027777777777778],[-0.0798611111111111],[1],[0],[0],[1.173174099996686],['Target'],981936,001,2024-10-04_12h03.15.693,Visual Search Task,2024.2.1post4,60.05014181679504,2024-10-04 12h03.26.712753 +0530,
51,0,51,[0.03356481481481482],[0.32523148148148145],[1],[0],[0],[2.004646699875593],['Target'],51,0,51,0,98.9355526000727,,5,98.91770480014384,98.9355526000727,98.9355526000727,0.02813120000064373,99.93717869999819,100.92318460019305,[0.03356481481481482],[0.32523148148148145],[1],[0],[0],[2.004646699875593],['Target'],981936,001,2024-10-04_12h03.15.693,Visual Search Task,2024.2.1post4,60.05014181679504,2024-10-04 12h03.26.712753 +0530,
52,0,52,[0.2673611111111111],[0.06597222222222222],[1],[0],[0],[1.3803713000379503],['Target'],52,0,52,0,100.98531130002812,,10,100.95762520004064,100.98531130002812,100.98531130002812,0.034132600063458085,101.98735770001076,102.3387201000005,[0.2673611111111111],[0.06597222222222222],[1],[0],[0],[1.3803713000379503],['Target'],981936,001,2024-10-04_12h03.15.693,Visual Search Task,2024.2.1post4,60.05014181679504,2024-10-04 12h03.26.712753 +0530,
53,0,53,"[-0.04282407407407408, -0.3055555555555556, -0.3148148148148148]","[0.028935185185185185, 0.4444444444444444, 0.48032407407407407]","[1, 1, 1]","[0, 0, 0]","[0, 0, 0]","[1.395218700170517, 4.361306200036779, 5.212094900198281]","[None, None, 'Target']",53,0,53,0,102.40194260003045,,10,102.37638310017064,102.40194260003045,102.40194260003045,0.03718169988133013,103.40339460014366,107.58930780016817,"[-0.04282407407407408, -0.3055555555555556, -0.3148148148148148]","[0.028935185185185185, 0.4444444444444444, 0.48032407407407407]","[1, 1, 1]","[0, 0, 0]","[0, 0, 0]","[1.395218700170517, 4.361306200036779, 5.212094900198281]","[None, None, 'Target']",981936,001,2024-10-04_12h03.15.693,Visual Search Task,2024.2.1post4,60.05014181679504,2024-10-04 12h03.26.712753 +0530,
54,0,54,[-0.04513888888888889],[-0.1400462962962963],[1],[0],[0],[1.5942462999373674],['Target'],54,0,54,0,107.63444890012033,,5,107.60988780017942,107.63444890012033,107.63444890012033,0.02005530009046197,108.63599189999513,109.20491249999031,[-0.04513888888888889],[-0.1400462962962963],[1],[0],[0],[1.5942462999373674],['Target'],981936,001,2024-10-04_12h03.15.693,Visual Search Task,2024.2.1post4,60.05014181679504,2024-10-04 12h03.26.712753 +0530,
55,0,55,[0.48148148148148145],[0.4050925925925926],[1],[0],[0],[1.8924179999157786],['Target'],55,0,55,0,109.26758870016783,,10,109.24475080007687,109.26758870016783,109.26758870016783,0.03956489986740053,110.2693221999798,111.13793650013395,[0.48148148148148145],[0.4050925925925926],[1],[0],[0],[1.8924179999157786],['Target'],981936,001,2024-10-04_12h03.15.693,Visual Search Task,2024.2.1post4,60.05014181679504,2024-10-04 12h03.26.712753 +0530,
56,0,56,[0.21875],[0.41087962962962965],[1],[0],[0],[2.145942199975252],['Target'],56,0,56,0,111.20065640006214,,10,111.17450439999811,111.20065640006214,111.20065640006214,0.036215800093486905,112.20221210015006,113.32129990006797,[0.21875],[0.41087962962962965],[1],[0],[0],[2.145942199975252],['Target'],981936,001,2024-10-04_12h03.15.693,Visual Search Task,2024.2.1post4,60.05014181679504,2024-10-04 12h03.26.712753 +0530,
57,0,57,[0.25578703703703703],[-0.4525462962962963],[1],[0],[0],[1.643283899873495],['Target'],57,0,57,0,113.36720520001836,,5,113.34502650005743,113.36720520001836,113.36720520001836,0.023416899843141437,114.3688250000123,114.98914590012282,[0.25578703703703703],[-0.4525462962962963],[1],[0],[0],[1.643283899873495],['Target'],981936,001,2024-10-04_12h03.15.693,Visual Search Task,2024.2.1post4,60.05014181679504,2024-10-04 12h03.26.712753 +0530,
58,0,58,[0.2604166666666667],[0.09606481481481481],[1],[0],[0],[1.3547634999267757],['Target'],58,0,58,0,115.05032510007732,,10,115.03112950013019,115.05032510007732,115.05032510007732,0.04171800008043647,116.05190289998427,116.38668800005689,[0.2604166666666667],[0.09606481481481481],[1],[0],[0],[1.3547634999267757],['Target'],981936,001,2024-10-04_12h03.15.693,Visual Search Task,2024.2.1post4,60.05014181679504,2024-10-04 12h03.26.712753 +0530,
59,0,59,[-0.14930555555555555],[-0.4722222222222222],[1],[0],[0],[2.490557399811223],['Target'],59,0,59,0,116.45002270000987,,10,116.42911360017024,116.45002270000987,116.45002270000987,0.04210139997303486,117.4515401001554,118.92044310015626,[-0.14930555555555555],[-0.4722222222222222],[1],[0],[0],[2.490557399811223],['Target'],981936,001,2024-10-04_12h03.15.693,Visual Search Task,2024.2.1post4,60.05014181679504,2024-10-04 12h03.26.712753 +0530,
60,0,60,[0.45949074074074076],[0.4699074074074074],[1],[0],[0],[3.9760946999303997],['Target'],60,0,60,0,118.966425599996,,5,118.94310050015338,118.966425599996,118.966425599996,0.02232940006069839,119.96779959998094,122.9199910000898,[0.45949074074074076],[0.4699074074074074],[1],[0],[0],[3.9760946999303997],['Target'],981936,001,2024-10-04_12h03.15.693,Visual Search Task,2024.2.1post4,60.05014181679504,2024-10-04 12h03.26.712753 +0530,
61,0,61,[-0.0775462962962963],[-0.35648148148148145],[1],[0],[0],[1.91076480015181],['Target'],61,0,61,0,122.96590419998392,,5,122.94122699997388,122.96590419998392,122.96590419998392,0.02095580007880926,123.96717109996825,124.85281950002536,[-0.0775462962962963],[-0.35648148148148145],[1],[0],[0],[1.91076480015181],['Target'],981936,001,2024-10-04_12h03.15.693,Visual Search Task,2024.2.1post4,60.05014181679504,2024-10-04 12h03.26.712753 +0530,
62,0,62,[-0.12152777777777778],[0.08217592592592593],[1],[0],[0],[1.9077053999062628],['Target'],62,0,62,0,124.8989983999636,,5,124.87687210016884,124.8989983999636,124.8989983999636,0.023799899965524673,125.90044350014068,126.78540639998391,[-0.12152777777777778],[0.08217592592592593],[1],[0],[0],[1.9077053999062628],['Target'],981936,001,2024-10-04_12h03.15.693,Visual Search Task,2024.2.1post4,60.05014181679504,2024-10-04 12h03.26.712753 +0530,
63,0,63,[-0.3449074074074074],[-0.34375],[1],[0],[0],[2.276895900024101],['Target'],63,0,63,0,126.83203970012255,,5,126.80798200005665,126.83203970012255,126.83203970012255,0.022281800163909793,127.83364040008746,129.08567950013094,[-0.3449074074074074],[-0.34375],[1],[0],[0],[2.276895900024101],['Target'],981936,001,2024-10-04_12h03.15.693,Visual Search Task,2024.2.1post4,60.05014181679504,2024-10-04 12h03.26.712753 +0530,
64,0,64,[-0.41435185185185186],[-0.18171296296296297],[1],[0],[0],[1.4794929998461157],['Target'],64,0,64,0,129.14855960011482,,10,129.12165190000087,129.14855960011482,129.14855960011482,0.03570530004799366,130.1498799000401,130.6018630999606,[-0.41435185185185186],[-0.18171296296296297],[1],[0],[0],[1.4794929998461157],['Target'],981936,001,2024-10-04_12h03.15.693,Visual Search Task,2024.2.1post4,60.05014181679504,2024-10-04 12h03.26.712753 +0530,
65,0,65,[-0.11574074074074074],[-0.31828703703703703],[1],[0],[0],[1.738676100037992],['Target'],65,0,65,0,130.66474930010736,,10,130.64596790005453,130.66474930010736,130.66474930010736,0.043766200076788664,131.66637800005265,132.38544180011377,[-0.11574074074074074],[-0.31828703703703703],[1],[0],[0],[1.738676100037992],['Target'],981936,001,2024-10-04_12h03.15.693,Visual Search Task,2024.2.1post4,60.05014181679504,2024-10-04 12h03.26.712753 +0530,
66,0,66,[-0.02662037037037037],[0.2361111111111111],[1],[0],[0],[1.710935000097379],['Target'],66,0,66,0,132.44794470001943,,10,132.4236135999672,132.44794470001943,132.44794470001943,0.0378717000130564,133.4495994001627,134.13543130015023,[-0.02662037037037037],[0.2361111111111111],[1],[0],[0],[1.710935000097379],['Target'],981936,001,2024-10-04_12h03.15.693,Visual Search Task,2024.2.1post4,60.05014181679504,2024-10-04 12h03.26.712753 +0530,
67,0,67,[0.1909722222222222],[-0.21643518518518517],[1],[0],[0],[1.659146600170061],['Target'],67,0,67,0,134.18107470008545,,5,134.15763030014932,134.18107470008545,134.18107470008545,0.021854600170627236,135.18214240018278,135.81749589997344,[0.1909722222222222],[-0.21643518518518517],[1],[0],[0],[1.659146600170061],['Target'],981936,001,2024-10-04_12h03.15.693,Visual Search Task,2024.2.1post4,60.05014181679504,2024-10-04 12h03.26.712753 +0530,
68,0,68,[-0.05092592592592592],[-0.4479166666666667],[1],[0],[0],[1.5874075000174344],['Target'],68,0,68,0,135.88086050003767,,10,135.84813940012828,135.88086050003767,135.88086050003767,0.0304710001219064,136.88255239999853,137.4363184000831,[-0.05092592592592592],[-0.4479166666666667],[1],[0],[0],[1.5874075000174344],['Target'],981936,001,2024-10-04_12h03.15.693,Visual Search Task,2024.2.1post4,60.05014181679504,2024-10-04 12h03.26.712753 +0530,
69,0,69,[0.3587962962962963],[0.4039351851851852],[1],[0],[0],[2.5124627999030054],['Target'],69,0,69,0,137.49725460004993,,10,137.4699438000098,137.49725460004993,137.49725460004993,0.033300599781796336,138.49807490012608,139.98322070017457,[0.3587962962962963],[0.4039351851851852],[1],[0],[0],[2.5124627999030054],['Target'],981936,001,2024-10-04_12h03.15.693,Visual Search Task,2024.2.1post4,60.05014181679504,2024-10-04 12h03.26.712753 +0530,
70,0,70,[-0.19791666666666666],[0.1076388888888889],[1],[0],[0],[1.9120918000116944],['Target'],70,0,70,0,140.02978260000236,,5,140.0038491000887,140.02978260000236,140.02978260000236,0.020315099973231554,141.03117200010456,141.9167502000928,[-0.19791666666666666],[0.1076388888888889],[1],[0],[0],[1.9120918000116944],['Target'],981936,001,2024-10-04_12h03.15.693,Visual Search Task,2024.2.1post4,60.05014181679504,2024-10-04 12h03.26.712753 +0530,
71,0,71,[-0.3726851851851852],[0.3912037037037037],[1],[0],[0],[1.952650099992752],['Target'],71,0,71,0,141.96264030016027,,5,141.9469420001842,141.96264030016027,141.96264030016027,0.029932700097560883,142.96447960007936,143.90042160009034,[-0.3726851851851852],[0.3912037037037037],[1],[0],[0],[1.952650099992752],['Target'],981936,001,2024-10-04_12h03.15.693,Visual Search Task,2024.2.1post4,60.05014181679504,2024-10-04 12h03.26.712753 +0530,
72,0,72,[0.08912037037037036],[-0.05092592592592592],[1],[0],[0],[1.6899739999789745],['Target'],72,0,72,0,143.9461604000535,,5,143.92593770008534,143.9461604000535,143.9461604000535,0.025245000142604113,144.94799690018408,145.6169265001081,[0.08912037037037036],[-0.05092592592592592],[1],[0],[0],[1.6899739999789745],['Target'],981936,001,2024-10-04_12h03.15.693,Visual Search Task,2024.2.1post4,60.05014181679504,2024-10-04 12h03.26.712753 +0530,
73,0,73,[0.1724537037037037],[-0.39467592592592593],[1],[0],[0],[2.7760401000268757],['Target'],73,0,73,0,145.6798454001546,,10,145.6568624000065,145.6798454001546,145.6798454001546,0.0396694999653846,146.68140790006146,148.43365650018677,[0.1724537037037037],[-0.39467592592592593],[1],[0],[0],[2.7760401000268757],['Target'],981936,001,2024-10-04_12h03.15.693,Visual Search Task,2024.2.1post4,60.05014181679504,2024-10-04 12h03.26.712753 +0530,
74,0,74,[-0.08333333333333333],[-0.07060185185185185],[1],[0],[0],[1.3987382999621332],['Target'],74,0,74,0,148.49594300007448,,10,148.467356499983,148.49594300007448,148.49594300007448,0.03335320018231869,149.49766160012223,149.86700940015726,[-0.08333333333333333],[-0.07060185185185185],[1],[0],[0],[1.3987382999621332],['Target'],981936,001,2024-10-04_12h03.15.693,Visual Search Task,2024.2.1post4,60.05014181679504,2024-10-04 12h03.26.712753 +0530,
75,0,75,[0.1261574074074074],[0.27662037037037035],[1],[0],[0],[2.335139600094408],['Target'],75,0,75,0,149.94588370015845,,10,149.91412630002014,149.94588370015845,149.94588370015845,0.046802999917417765,150.947364800144,152.2499907000456,[0.1261574074074074],[0.27662037037037035],[1],[0],[0],[2.335139600094408],['Target'],981936,001,2024-10-04_12h03.15.693,Visual Search Task,2024.2.1post4,60.05014181679504,2024-10-04 12h03.26.712753 +0530,
76,0,76,[0.4097222222222222],[0.38657407407407407],[1],[0],[0],[1.864710799884051],['Target'],76,0,76,0,152.31226800009608,,10,152.28560369997285,152.31226800009608,152.31226800009608,0.03535529994405806,153.31376150017604,154.15112740010954,[0.4097222222222222],[0.38657407407407407],[1],[0],[0],[1.864710799884051],['Target'],981936,001,2024-10-04_12h03.15.693,Visual Search Task,2024.2.1post4,60.05014181679504,2024-10-04 12h03.26.712753 +0530,
77,0,77,[0.39699074074074076],[0.16435185185185186],[1],[0],[0],[1.3542923000641167],['Target'],77,0,77,0,154.19531990005635,,5,154.17729900009,154.19531990005635,154.19531990005635,0.025854300009086728,155.1967650000006,155.5324184000492,[0.39699074074074076],[0.16435185185185186],[1],[0],[0],[1.3542923000641167],['Target'],981936,001,2024-10-04_12h03.15.693,Visual Search Task,2024.2.1post4,60.05014181679504,2024-10-04 12h03.26.712753 +0530,
78,0,78,[0.48032407407407407],[-0.0023148148148148147],[1],[0],[0],[1.4606178000103682],['Target'],78,0,78,0,155.59518579998985,,10,155.5719539001584,155.59518579998985,155.59518579998985,0.03927469998598099,156.59679450001568,157.03333080001175,[0.48032407407407407],[-0.0023148148148148147],[1],[0],[0],[1.4606178000103682],['Target'],981936,001,2024-10-04_12h03.15.693,Visual Search Task,2024.2.1post4,60.05014181679504,2024-10-04 12h03.26.712753 +0530,
79,0,79,[-0.27314814814814814],[-0.44907407407407407],[1],[0],[0],[2.4841134001035243],['Target'],79,0,79,0,157.09495640010573,,10,157.0652257001493,157.09495640010573,157.09495640010573,0.031518799951300025,158.09638940007426,159.55015989998356,[-0.27314814814814814],[-0.44907407407407407],[1],[0],[0],[2.4841134001035243],['Target'],981936,001,2024-10-04_12h03.15.693,Visual Search Task,2024.2.1post4,60.05014181679504,2024-10-04 12h03.26.712753 +0530,
80,0,80,[0.017361111111111112],[-0.42824074074074076],[1],[0],[0],[2.1097601000219584],['Target'],80,0,80,0,159.61132460017689,,10,159.58818730013445,159.61132460017689,159.61132460017689,0.0377127998508513,160.61286200000905,161.6986938000191,[0.017361111111111112],[-0.42824074074074076],[1],[0],[0],[2.1097601000219584],['Target'],981936,001,2024-10-04_12h03.15.693,Visual Search Task,2024.2.1post4,60.05014181679504,2024-10-04 12h03.26.712753 +0530,
81,0,81,[-0.08680555555555555],[0.21180555555555555],[1],[0],[0],[1.3898847000673413],['Target'],81,0,81,0,161.74435000005178,,5,161.72335000010207,161.74435000005178,161.74435000005178,0.024338999995961785,162.74581840005703,163.11420579999685,[-0.08680555555555555],[0.21180555555555555],[1],[0],[0],[1.3898847000673413],['Target'],981936,001,2024-10-04_12h03.15.693,Visual Search Task,2024.2.1post4,60.05014181679504,2024-10-04 12h03.26.712753 +0530,
82,0,82,[-0.3784722222222222],[-0.22569444444444445],[1],[0],[0],[1.3404906999785453],['Target'],82,0,82,0,163.16004830016755,,5,163.13900690013543,163.16004830016755,163.16004830016755,0.02452940004877746,164.16144399996847,164.48034250014462,[-0.3784722222222222],[-0.22569444444444445],[1],[0],[0],[1.3404906999785453],['Target'],981936,001,2024-10-04_12h03.15.693,Visual Search Task,2024.2.1post4,60.05014181679504,2024-10-04 12h03.26.712753 +0530,
83,0,83,[-0.4525462962962963],[-0.056712962962962965],[1],[0],[0],[1.7034931001253426],['Target'],83,0,83,0,164.54315360006876,,10,164.52590850018896,164.54315360006876,164.54315360006876,0.04531499999575317,165.54475540015846,166.23030880000442,[-0.4525462962962963],[-0.056712962962962965],[1],[0],[0],[1.7034931001253426],['Target'],981936,001,2024-10-04_12h03.15.693,Visual Search Task,2024.2.1post4,60.05014181679504,2024-10-04 12h03.26.712753 +0530,
84,0,84,[-0.4363425925925926],[0.14583333333333334],[1],[0],[0],[1.508077000034973],['Target'],84,0,84,0,166.2930787000805,,10,166.2715749000199,166.2930787000805,166.2930787000805,0.04093949985690415,167.29467279999517,167.7804472001735,[-0.4363425925925926],[0.14583333333333334],[1],[0],[0],[1.508077000034973],['Target'],981936,001,2024-10-04_12h03.15.693,Visual Search Task,2024.2.1post4,60.05014181679504,2024-10-04 12h03.26.712753 +0530,
85,0,85,[0.20717592592592593],[-0.2511574074074074],[1],[0],[0],[1.654433500021696],['Target'],85,0,85,0,167.8262751000002,,5,167.80798360006884,167.8262751000002,167.8262751000002,0.027229900006204844,168.82766130007803,169.46328410017304,[0.20717592592592593],[-0.2511574074074074],[1],[0],[0],[1.654433500021696],['Target'],981936,001,2024-10-04_12h03.15.693,Visual Search Task,2024.2.1post4,60.05014181679504,2024-10-04 12h03.26.712753 +0530,
86,0,86,[-0.42939814814814814],[0.3333333333333333],[1],[0],[0],[1.470303500071168],['Target'],86,0,86,0,169.5257203001529,,10,169.50848109996878,169.5257203001529,169.5257203001529,0.04492969997227192,170.52751140017062,170.97950750007294,[-0.42939814814814814],[0.3333333333333333],[1],[0],[0],[1.470303500071168],['Target'],981936,001,2024-10-04_12h03.15.693,Visual Search Task,2024.2.1post4,60.05014181679504,2024-10-04 12h03.26.712753 +0530,
87,0,87,[0.028935185185185185],[0.27662037037037035],[1],[0],[0],[1.3781180002260953],['Target'],87,0,87,0,171.02577960002236,,5,171.0009879001882,171.02577960002236,171.02577960002236,0.021148400148376822,172.0271164001897,172.37996629998088,[0.028935185185185185],[0.27662037037037035],[1],[0],[0],[1.3781180002260953],['Target'],981936,001,2024-10-04_12h03.15.693,Visual Search Task,2024.2.1post4,60.05014181679504,2024-10-04 12h03.26.712753 +0530,
88,0,88,[-0.10185185185185185],[-0.4027777777777778],[1],[0],[0],[1.9463297999463975],['Target'],88,0,88,0,172.44236790016294,,10,172.415777400136,172.44236790016294,172.44236790016294,0.03555230004712939,173.44388240016997,174.36293730000034,[-0.10185185185185185],[-0.4027777777777778],[1],[0],[0],[1.9463297999463975],['Target'],981936,001,2024-10-04_12h03.15.693,Visual Search Task,2024.2.1post4,60.05014181679504,2024-10-04 12h03.26.712753 +0530,
89,0,89,[-0.34375],[0.16782407407407407],[1],[0],[0],[1.4966277999337763],['Target'],89,0,89,0,174.39261960005388,,5,174.3826407000888,174.39261960005388,174.39261960005388,0.019354999996721745,175.39412800013088,175.88013830012642,[-0.34375],[0.16782407407407407],[1],[0],[0],[1.4966277999337763],['Target'],981936,001,2024-10-04_12h03.15.693,Visual Search Task,2024.2.1post4,60.05014181679504,2024-10-04 12h03.26.712753 +0530,
90,0,90,[0.11226851851851852],[0.21643518518518517],[1],[0],[0],[1.6127555000130087],['Target'],90,0,90,0,175.94243200006895,,10,175.9161404001061,175.94243200006895,175.94243200006895,0.0357338001485914,176.94412740017287,177.52960929996334,[0.11226851851851852],[0.21643518518518517],[1],[0],[0],[1.6127555000130087],['Target'],981936,001,2024-10-04_12h03.15.693,Visual Search Task,2024.2.1post4,60.05014181679504,2024-10-04 12h03.26.712753 +0530,
91,0,91,"[0.19675925925925927, 0.1412037037037037]","[-0.013888888888888888, -0.034722222222222224]","[1, 1]","[0, 0]","[0, 0]","[1.1567798000760376, 2.1907867998816073]","[None, 'Target']",91,0,91,0,177.57558459998108,,5,177.55433250009082,177.57558459998108,177.57558459998108,0.024412799859419465,178.5761383001227,179.74594349996187,"[0.19675925925925927, 0.1412037037037037]","[-0.013888888888888888, -0.034722222222222224]","[1, 1]","[0, 0]","[0, 0]","[1.1567798000760376, 2.1907867998816073]","[None, 'Target']",981936,001,2024-10-04_12h03.15.693,Visual Search Task,2024.2.1post4,60.05014181679504,2024-10-04 12h03.26.712753 +0530,
92,0,92,[0.21296296296296297],[0.36342592592592593],[1],[0],[0],[1.2919436001684517],['Target'],92,0,92,0,179.79140770016238,,5,179.7689555999823,179.79140770016238,179.79140770016238,0.022708699805662036,180.79257589997724,181.0616988001857,[0.21296296296296297],[0.36342592592592593],[1],[0],[0],[1.2919436001684517],['Target'],981936,001,2024-10-04_12h03.15.693,Visual Search Task,2024.2.1post4,60.05014181679504,2024-10-04 12h03.26.712753 +0530,
93,0,93,[-0.42476851851851855],[-0.08449074074074074],[1],[0],[0],[1.2589850998483598],['Target'],93,0,93,0,181.10788880009204,,5,181.08508410002105,181.10788880009204,181.10788880009204,0.0230831999797374,182.10927370004356,182.34483489999548,[-0.42476851851851855],[-0.08449074074074074],[1],[0],[0],[1.2589850998483598],['Target'],981936,001,2024-10-04_12h03.15.693,Visual Search Task,2024.2.1post4,60.05014181679504,2024-10-04 12h03.26.712753 +0530,
94,0,94,[0.2025462962962963],[-0.019675925925925927],[1],[0],[0],[1.6071371999569237],['Target'],94,0,94,0,182.39116460015066,,5,182.37059760000557,182.39116460015066,182.39116460015066,0.025516800116747618,183.39272080012597,183.97825430007651,[0.2025462962962963],[-0.019675925925925927],[1],[0],[0],[1.6071371999569237],['Target'],981936,001,2024-10-04_12h03.15.693,Visual Search Task,2024.2.1post4,60.05014181679504,2024-10-04 12h03.26.712753 +0530,
95,0,95,[-0.4583333333333333],[0.1111111111111111],[1],[0],[0],[1.4199951998889446],['Target'],95,0,95,0,184.00783880008385,,5,183.99241370009258,184.00783880008385,184.00783880008385,0.014012500178068876,185.00940100010484,185.41317890002392,[-0.4583333333333333],[0.1111111111111111],[1],[0],[0],[1.4199951998889446],['Target'],981936,001,2024-10-04_12h03.15.693,Visual Search Task,2024.2.1post4,60.05014181679504,2024-10-04 12h03.26.712753 +0530,
96,0,96,[0.07175925925925926],[0.16319444444444445],[1],[0],[0],[1.6623041999991983],['Target'],96,0,96,0,185.47459290013649,,10,185.4481006001588,185.47459290013649,185.47459290013649,0.03466839995235205,186.47622010018677,187.11134249996394,[0.07175925925925926],[0.16319444444444445],[1],[0],[0],[1.6623041999991983],['Target'],981936,001,2024-10-04_12h03.15.693,Visual Search Task,2024.2.1post4,60.05014181679504,2024-10-04 12h03.26.712753 +0530,
97,0,97,[-0.1701388888888889],[0.4131944444444444],[1],[0],[0],[1.4221695000305772],['Target'],97,0,97,0,187.15776780014858,,5,187.13862510002218,187.15776780014858,187.15776780014858,0.02673539984971285,188.15943250013515,188.56166160013527,[-0.1701388888888889],[0.4131944444444444],[1],[0],[0],[1.4221695000305772],['Target'],981936,001,2024-10-04_12h03.15.693,Visual Search Task,2024.2.1post4,60.05014181679504,2024-10-04 12h03.26.712753 +0530,
98,0,98,"[-0.18518518518518517, -0.17939814814814814]","[0.3541666666666667, 0.33217592592592593]","[1, 1]","[0, 0]","[0, 0]","[1.0094021998811513, 1.9609085000120103]","[None, 'Target']",98,0,98,0,188.6073827999644,,5,188.58470750018023,188.6073827999644,188.6073827999644,0.022770200157538056,189.6089039000217,190.54644690011628,"[-0.18518518518518517, -0.17939814814814814]","[0.3541666666666667, 0.33217592592592593]","[1, 1]","[0, 0]","[0, 0]","[1.0094021998811513, 1.9609085000120103]","[None, 'Target']",981936,001,2024-10-04_12h03.15.693,Visual Search Task,2024.2.1post4,60.05014181679504,2024-10-04 12h03.26.712753 +0530,
99,0,99,[-0.13773148148148148],[-0.08333333333333333],[1],[0],[0],[1.4399538999423385],['Target'],99,0,99,0,190.59072099998593,,5,190.57014620001428,190.59072099998593,190.59072099998593,0.02342280000448227,191.59233410004526,192.01095560006797,[-0.13773148148148148],[-0.08333333333333333],[1],[0],[0],[1.4399538999423385],['Target'],981936,001,2024-10-04_12h03.15.693,Visual Search Task,2024.2.1post4,60.05014181679504,2024-10-04 12h03.26.712753 +0530,
100,0,100,[-0.017361111111111112],[-0.26157407407407407],[1],[0],[0],[1.4553353998344392],['Target'],100,0,100,0,192.0571628001053,,5,192.0380631000735,192.0571628001053,192.0571628001053,0.026852099923416972,193.05849820002913,193.4941994000692,[-0.017361111111111112],[-0.26157407407407407],[1],[0],[0],[1.4553353998344392],['Target'],981936,001,2024-10-04_12h03.15.693,Visual Search Task,2024.2.1post4,60.05014181679504,2024-10-04 12h03.26.712753 +0530,
101,0,101,[-0.3576388888888889],[0.09953703703703703],[1],[0],[0],[1.3622597998473793],['Target'],101,0,101,0,193.57347319996916,,10,193.54749090014957,193.57347319996916,193.57347319996916,0.05303069995716214,194.57518050004728,194.91043350007385,[-0.3576388888888889],[0.09953703703703703],[1],[0],[0],[1.3622597998473793],['Target'],981936,001,2024-10-04_12h03.15.693,Visual Search Task,2024.2.1post4,60.05014181679504,2024-10-04 12h03.26.712753 +0530,
102,0,102,[0.4363425925925926],[-0.03935185185185185],[1],[0],[0],[1.7092917999252677],['Target'],102,0,102,0,195.0401101000607,,10,195.01736350008287,195.0401101000607,195.0401101000607,0.10658510006032884,196.0741630999837,196.7275162001606,[0.4363425925925926],[-0.03935185185185185],[1],[0],[0],[1.7092917999252677],['Target'],981936,001,2024-10-04_12h03.15.693,Visual Search Task,2024.2.1post4,60.05014181679504,2024-10-04 12h03.26.712753 +0530,
103,0,103,[0.4351851851851852],[-0.32175925925925924],[1],[0],[0],[2.3713946000207216],['Target'],103,0,103,0,196.78979229996912,,10,196.77024890016764,196.78979229996912,196.78979229996912,0.04221639991737902,197.79165180004202,199.1424977001734,[0.4351851851851852],[-0.32175925925925924],[1],[0],[0],[2.3713946000207216],['Target'],981936,001,2024-10-04_12h03.15.693,Visual Search Task,2024.2.1post4,60.05014181679504,2024-10-04 12h03.26.712753 +0530,
104,0,104,[-0.21875],[-0.03356481481481482],[1],[0],[0],[1.5241559001151472],['Target'],104,0,104,0,199.20543710002676,,10,199.1840641000308,199.20543710002676,199.20543710002676,0.041163899935781956,200.20727050001733,200.7090602000244,[-0.21875],[-0.03356481481481482],[1],[0],[0],[1.5241559001151472],['Target'],981936,001,2024-10-04_12h03.15.693,Visual Search Task,2024.2.1post4,60.05014181679504,2024-10-04 12h03.26.712753 +0530,
105,0,105,[0.32060185185185186],[0.26967592592592593],[1],[0],[0],[1.6936649000272155],['Target'],105,0,105,0,200.771897100145,,10,200.74787670001388,200.771897100145,200.771897100145,0.03848630003631115,201.77349920012057,202.44234070018865,[0.32060185185185186],[0.26967592592592593],[1],[0],[0],[1.6936649000272155],['Target'],981936,001,2024-10-04_12h03.15.693,Visual Search Task,2024.2.1post4,60.05014181679504,2024-10-04 12h03.26.712753 +0530,
106,0,106,[-0.44560185185185186],[-0.3854166666666667],[1],[0],[0],[2.406882699811831],['Target'],106,0,106,0,202.50518140010536,,10,202.4843295000028,202.50518140010536,202.50518140010536,0.0416741999797523,203.50665640016086,204.89208640018478,[-0.44560185185185186],[-0.3854166666666667],[1],[0],[0],[2.406882699811831],['Target'],981936,001,2024-10-04_12h03.15.693,Visual Search Task,2024.2.1post4,60.05014181679504,2024-10-04 12h03.26.712753 +0530,
107,0,107,[0.10416666666666667],[0.47453703703703703],[1],[0],[0],[2.7593060999643058],['Target'],107,0,107,0,204.9381280001253,,5,204.91688830009662,204.9381280001253,204.9381280001253,0.024506299989297986,205.93989649997093,207.67709650006145,[0.10416666666666667],[0.47453703703703703],[1],[0],[0],[2.7593060999643058],['Target'],981936,001,2024-10-04_12h03.15.693,Visual Search Task,2024.2.1post4,60.05014181679504,2024-10-04 12h03.26.712753 +0530,
108,0,108,[-0.3738425925925926],[0.3101851851851852],[1],[0],[0],[1.6821062001399696],['Target'],108,0,108,0,207.73797480016947,,10,207.710944800172,207.73797480016947,207.73797480016947,0.03358820010907948,208.73944180016406,209.3938387001399,[-0.3738425925925926],[0.3101851851851852],[1],[0],[0],[1.6821062001399696],['Target'],981936,001,2024-10-04_12h03.15.693,Visual Search Task,2024.2.1post4,60.05014181679504,2024-10-04 12h03.26.712753 +0530,
109,0,109,[0.46064814814814814],[0.46412037037037035],[1],[0],[0],[2.2902153998147696],['Target'],109,0,109,0,209.45464210002683,,10,209.43620890006423,209.45464210002683,209.45464210002683,0.04205369995906949,210.45601040008478,211.72719680005684,[0.46064814814814814],[0.46412037037037035],[1],[0],[0],[2.2902153998147696],['Target'],981936,001,2024-10-04_12h03.15.693,Visual Search Task,2024.2.1post4,60.05014181679504,2024-10-04 12h03.26.712753 +0530,
110,0,110,[0.2916666666666667],[0.03819444444444445],[1],[0],[0],[2.100820900173858],['Target'],110,0,110,0,211.78783709998243,,10,211.7583393000532,211.78783709998243,211.78783709998243,0.030784500064328313,212.78995970007963,213.85997230000794,[0.2916666666666667],[0.03819444444444445],[1],[0],[0],[2.100820900173858],['Target'],981936,001,2024-10-04_12h03.15.693,Visual Search Task,2024.2.1post4,60.05014181679504,2024-10-04 12h03.26.712753 +0530,
111,0,111,[0.10416666666666667],[0.4351851851851852],[1],[0],[0],[2.524106200085953],['Target'],111,0,111,0,213.9210857001599,,10,213.90003939997405,213.9210857001599,213.9210857001599,0.03974969987757504,214.92269890010357,216.42484940006398,[0.10416666666666667],[0.4351851851851852],[1],[0],[0],[2.524106200085953],['Target'],981936,001,2024-10-04_12h03.15.693,Visual Search Task,2024.2.1post4,60.05014181679504,2024-10-04 12h03.26.712753 +0530,
112,0,112,[-0.22685185185185186],[0.08217592592592593],[1],[0],[0],[2.6597498999908566],['Target'],112,0,112,0,216.4708563000895,,5,216.44717600010335,216.4708563000895,216.4708563000895,0.021896100137382746,217.4722488000989,219.1077390999999,[-0.22685185185185186],[0.08217592592592593],[1],[0],[0],[2.6597498999908566],['Target'],981936,001,2024-10-04_12h03.15.693,Visual Search Task,2024.2.1post4,60.05014181679504,2024-10-04 12h03.26.712753 +0530,
113,0,113,[0.2974537037037037],[0.08101851851851852],[1],[0],[0],[1.9089845998678356],['Target'],113,0,113,0,219.15386710013263,,5,219.13079890003428,219.15386710013263,219.15386710013263,0.02280350006185472,220.15523460018449,221.04058040003292,[0.2974537037037037],[0.08101851851851852],[1],[0],[0],[1.9089845998678356],['Target'],981936,001,2024-10-04_12h03.15.693,Visual Search Task,2024.2.1post4,60.05014181679504,2024-10-04 12h03.26.712753 +0530,
114,0,114,[0.2986111111111111],[-0.18518518518518517],[1],[0],[0],[1.259537799982354],['Target'],114,0,114,0,221.08684790018015,,5,221.06457690009847,221.08684790018015,221.08684790018015,0.023742099991068244,222.08813449996524,222.32489589997567,[0.2986111111111111],[-0.18518518518518517],[1],[0],[0],[1.259537799982354],['Target'],981936,001,2024-10-04_12h03.15.693,Visual Search Task,2024.2.1post4,60.05014181679504,2024-10-04 12h03.26.712753 +0530,
115,0,115,[0.02546296296296296],[-0.45023148148148145],[1],[0],[0],[3.561857899883762],['Target'],115,0,115,0,222.38665790017694,,10,222.36058520013466,222.38665790017694,222.38665790017694,0.035268899984657764,223.3881348001305,225.92320780013688,[0.02546296296296296],[-0.45023148148148145],[1],[0],[0],[3.561857899883762],['Target'],981936,001,2024-10-04_12h03.15.693,Visual Search Task,2024.2.1post4,60.05014181679504,2024-10-04 12h03.26.712753 +0530,
116,0,116,[0.011574074074074073],[-0.2152777777777778],[1],[0],[0],[1.8701048998627812],['Target'],116,0,116,0,225.98596439999528,,10,225.96974160009995,225.98596439999528,225.98596439999528,0.04622220015153289,226.98775000008754,227.8406756001059,[0.011574074074074073],[-0.2152777777777778],[1],[0],[0],[1.8701048998627812],['Target'],981936,001,2024-10-04_12h03.15.693,Visual Search Task,2024.2.1post4,60.05014181679504,2024-10-04 12h03.26.712753 +0530,
117,0,117,[0.42824074074074076],[-0.3414351851851852],[1],[0],[0],[1.730061300098896],['Target'],117,0,117,0,227.90255350014195,,10,227.8754445000086,227.90255350014195,227.90255350014195,0.03441730001941323,228.9041487001814,229.60629600007087,[0.42824074074074076],[-0.3414351851851852],[1],[0],[0],[1.730061300098896],['Target'],981936,001,2024-10-04_12h03.15.693,Visual Search Task,2024.2.1post4,60.05014181679504,2024-10-04 12h03.26.712753 +0530,
118,0,118,[0.1597222222222222],[-0.2025462962962963],[1],[0],[0],[1.2928856001235545],['Target'],118,0,118,0,229.6517453000415,,5,229.62837030016817,229.6517453000415,229.6517453000415,0.02176490006968379,230.653007700108,230.92204269999638,[0.1597222222222222],[-0.2025462962962963],[1],[0],[0],[1.2928856001235545],['Target'],981936,001,2024-10-04_12h03.15.693,Visual Search Task,2024.2.1post4,60.05014181679504,2024-10-04 12h03.26.712753 +0530,
119,0,119,[-0.013888888888888888],[-0.30324074074074076],[1],[0],[0],[1.776851500151679],['Target'],119,0,119,0,230.9848984000273,,10,230.9629776000511,230.9848984000273,230.9848984000273,0.04067280003800988,231.98601840017363,232.74061179999262,[-0.013888888888888888],[-0.30324074074074076],[1],[0],[0],[1.776851500151679],['Target'],981936,001,2024-10-04_12h03.15.693,Visual Search Task,2024.2.1post4,60.05014181679504,2024-10-04 12h03.26.712753 +0530,
120,0,120,[0.4386574074074074],[-0.45949074074074076],[1],[0],[0],[2.1686635001096874],['Target'],120,0,120,0,232.8009858999867,,10,232.7851532001514,232.8009858999867,232.8009858999867,0.04421600000932813,233.80283639999107,234.9545633001253,[0.4386574074074074],[-0.45949074074074076],[1],[0],[0],[2.1686635001096874],['Target'],981936,001,2024-10-04_12h03.15.693,Visual Search Task,2024.2.1post4,60.05014181679504,2024-10-04 12h03.26.712753 +0530,
121,0,121,[-0.19560185185185186],[0.02662037037037037],[1],[0],[0],[1.4611179998610169],['Target'],121,0,121,0,235.00087690004148,,5,234.97733970009722,235.00087690004148,235.00087690004148,0.022412999998778105,236.00227950001135,236.4392746000085,[-0.19560185185185186],[0.02662037037037037],[1],[0],[0],[1.4611179998610169],['Target'],981936,001,2024-10-04_12h03.15.693,Visual Search Task,2024.2.1post4,60.05014181679504,2024-10-04 12h03.26.712753 +0530,
122,0,122,[0.19444444444444445],[-0.05439814814814815],[1],[0],[0],[1.3805392999202013],['Target'],122,0,122,0,236.5008978000842,,10,236.47451630001888,236.5008978000842,236.5008978000842,0.03493349999189377,237.50230340007693,237.85591320018284,[0.19444444444444445],[-0.05439814814814815],[1],[0],[0],[1.3805392999202013],['Target'],981936,001,2024-10-04_12h03.15.693,Visual Search Task,2024.2.1post4,60.05014181679504,2024-10-04 12h03.26.712753 +0530,
123,0,123,[0.010416666666666666],[-0.2916666666666667],[1],[0],[0],[1.2756409000139683],['Target'],123,0,123,0,237.90062560001388,,5,237.87846040003933,237.90062560001388,237.90062560001388,0.022260299883782864,238.9020412999671,239.15498840017244,[0.010416666666666666],[-0.2916666666666667],[1],[0],[0],[1.2756409000139683],['Target'],981936,001,2024-10-04_12h03.15.693,Visual Search Task,2024.2.1post4,60.05014181679504,2024-10-04 12h03.26.712753 +0530,
124,0,124,[0.1412037037037037],[-0.4699074074074074],[1],[0],[0],[1.7741412001196295],['Target'],124,0,124,0,239.2174243000336,,10,239.1952502001077,239.2174243000336,239.2174243000336,0.04000270017422736,240.21867900015786,240.970152300084,[0.1412037037037037],[-0.4699074074074074],[1],[0],[0],[1.7741412001196295],['Target'],981936,001,2024-10-04_12h03.15.693,Visual Search Task,2024.2.1post4,60.05014181679504,2024-10-04 12h03.26.712753 +0530,
125,0,125,[-0.45717592592592593],[-0.2222222222222222],[1],[0],[0],[1.4155635999049991],['Target'],125,0,125,0,241.03371720016003,,10,241.00457910005935,241.03371720016003,241.03371720016003,0.0340871000662446,242.0350906001404,242.42088630003855,[-0.45717592592592593],[-0.2222222222222222],[1],[0],[0],[1.4155635999049991],['Target'],981936,001,2024-10-04_12h03.15.693,Visual Search Task,2024.2.1post4,60.05014181679504,2024-10-04 12h03.26.712753 +0530,
126,0,126,[0.16087962962962962],[0.016203703703703703],[1],[0],[0],[1.7210725001059473],['Target'],126,0,126,0,242.46671309997328,,5,242.44848280004226,242.46671309997328,242.46671309997328,0.02732359990477562,243.4682155000046,244.17035040003248,[0.16087962962962962],[0.016203703703703703],[1],[0],[0],[1.7210725001059473],['Target'],981936,001,2024-10-04_12h03.15.693,Visual Search Task,2024.2.1post4,60.05014181679504,2024-10-04 12h03.26.712753 +0530,
127,0,127,[0.06828703703703703],[0.19791666666666666],[1],[0],[0],[1.6228192001581192],['Target'],127,0,127,0,244.21668610000052,,5,244.1964375001844,244.21668610000052,244.21668610000052,0.025843200040981174,245.21833340008743,245.8200515001081,[0.06828703703703703],[0.19791666666666666],[1],[0],[0],[1.6228192001581192],['Target'],981936,001,2024-10-04_12h03.15.693,Visual Search Task,2024.2.1post4,60.05014181679504,2024-10-04 12h03.26.712753 +0530,
128,0,128,[0.12268518518518519],[-0.0011574074074074073],[1],[0],[0],[1.321818299824372],['Target'],128,0,128,0,245.8829230000265,,10,245.86392650008202,245.8829230000265,245.8829230000265,0.04364120005629957,246.88448590016924,247.1865267001558,[0.12268518518518519],[-0.0011574074074074073],[1],[0],[0],[1.321818299824372],['Target'],981936,001,2024-10-04_12h03.15.693,Visual Search Task,2024.2.1post4,60.05014181679504,2024-10-04 12h03.26.712753 +0530,
129,0,129,[-0.018518518518518517],[-0.017361111111111112],[1],[0],[0],[1.1425306999590248],['Target'],129,0,129,0,247.23262470006011,,5,247.21055610012263,247.23262470006011,247.23262470006011,0.0236905999481678,248.2341644000262,248.35392480017617,[-0.018518518518518517],[-0.017361111111111112],[1],[0],[0],[1.1425306999590248],['Target'],981936,001,2024-10-04_12h03.15.693,Visual Search Task,2024.2.1post4,60.05014181679504,2024-10-04 12h03.26.712753 +0530,
130,0,130,[0.3645833333333333],[0.23148148148148148],[1],[0],[0],[3.3892137000802904],['Target'],130,0,130,0,248.41595660010353,,10,248.3966847001575,248.41595660010353,248.41595660010353,0.042503600008785725,249.4175535000395,251.78651780006476,[0.3645833333333333],[0.23148148148148148],[1],[0],[0],[3.3892137000802904],['Target'],981936,001,2024-10-04_12h03.15.693,Visual Search Task,2024.2.1post4,60.05014181679504,2024-10-04 12h03.26.712753 +0530,
131,0,131,[0.11458333333333333],[0.1087962962962963],[1],[0],[0],[1.467526099877432],['Target'],131,0,131,0,251.83231720002368,,10,251.81805990007706,251.83231720002368,251.83231720002368,0.03132020006887615,252.83414670010097,253.2862199000083,[0.11458333333333333],[0.1087962962962963],[1],[0],[0],[1.467526099877432],['Target'],981936,001,2024-10-04_12h03.15.693,Visual Search Task,2024.2.1post4,60.05014181679504,2024-10-04 12h03.26.712753 +0530,
132,0,132,[-0.39467592592592593],[-0.10416666666666667],[1],[0],[0],[2.6819730999413878],['Target'],132,0,132,0,253.34944160003215,,10,253.32044530007988,253.34944160003215,253.34944160003215,0.03391939983703196,254.3509957001079,256.0031773999799,[-0.39467592592592593],[-0.10416666666666667],[1],[0],[0],[2.6819730999413878],['Target'],981936,001,2024-10-04_12h03.15.693,Visual Search Task,2024.2.1post4,60.05014181679504,2024-10-04 12h03.26.712753 +0530,
133,0,133,[-0.059027777777777776],[0.46296296296296297],[1],[0],[0],[2.8824701998382807],['Target'],133,0,133,0,256.06492450018413,,10,256.03729870007373,256.06492450018413,256.06492450018413,0.03378949989564717,257.0664242000785,258.92060140008107,[-0.059027777777777776],[0.46296296296296297],[1],[0],[0],[2.8824701998382807],['Target'],981936,001,2024-10-04_12h03.15.693,Visual Search Task,2024.2.1post4,60.05014181679504,2024-10-04 12h03.26.712753 +0530,
134,0,134,[0.2175925925925926],[0.2604166666666667],[1],[0],[0],[1.3931732000783086],['Target'],134,0,134,0,258.9645903001074,,5,258.9410066001583,258.9645903001074,258.9645903001074,0.02009250014089048,259.96633550012484,260.3350085001439,[0.2175925925925926],[0.2604166666666667],[1],[0],[0],[1.3931732000783086],['Target'],981936,001,2024-10-04_12h03.15.693,Visual Search Task,2024.2.1post4,60.05014181679504,2024-10-04 12h03.26.712753 +0530,
135,0,135,[-0.13310185185185186],[0.1574074074074074],[1],[0],[0],[1.8095166001003236],['Target'],135,0,135,0,260.38113069999963,,5,260.3576603999827,260.38113069999963,260.38113069999963,0.022388899931684136,261.38257819996215,262.16796950018033,[-0.13310185185185186],[0.1574074074074074],[1],[0],[0],[1.8095166001003236],['Target'],981936,001,2024-10-04_12h03.15.693,Visual Search Task,2024.2.1post4,60.05014181679504,2024-10-04 12h03.26.712753 +0530,
136,0,136,[0.028935185185185185],[0.31712962962962965],[1],[0],[0],[2.1988351999316365],['Target'],136,0,136,0,262.2309257001616,,10,262.20162559999153,262.2309257001616,262.2309257001616,0.03338090004399419,263.2322814001236,264.4012290001847,[0.028935185185185185],[0.31712962962962965],[1],[0],[0],[2.1988351999316365],['Target'],981936,001,2024-10-04_12h03.15.693,Visual Search Task,2024.2.1post4,60.05014181679504,2024-10-04 12h03.26.712753 +0530,
137,0,137,"[0.08796296296296297, 0.11226851851851852]","[0.4525462962962963, 0.46875]","[1, 1]","[0, 0]","[0, 0]","[1.794908900046721, 2.6276877999771386]","[None, 'Target']",137,0,137,0,264.44724950008094,,5,264.4219051001128,264.44724950008094,264.44724950008094,0.020297399954870343,265.44866080000065,267.0503728000913,"[0.08796296296296297, 0.11226851851851852]","[0.4525462962962963, 0.46875]","[1, 1]","[0, 0]","[0, 0]","[1.794908900046721, 2.6276877999771386]","[None, 'Target']",981936,001,2024-10-04_12h03.15.693,Visual Search Task,2024.2.1post4,60.05014181679504,2024-10-04 12h03.26.712753 +0530,
138,0,138,[0.35532407407407407],[-0.42592592592592593],[1],[0],[0],[2.0705114000011235],['Target'],138,0,138,0,267.0967939000111,,5,267.07895470014773,267.0967939000111,267.0967939000111,0.028270200127735734,268.0985912999604,269.15031810011715,[0.35532407407407407],[-0.42592592592592593],[1],[0],[0],[2.0705114000011235],['Target'],981936,001,2024-10-04_12h03.15.693,Visual Search Task,2024.2.1post4,60.05014181679504,2024-10-04 12h03.26.712753 +0530,
139,0,139,[0.16782407407407407],[0.14583333333333334],[1],[0],[0],[1.5622167999390513],['Target'],139,0,139,0,269.2134106999729,,10,269.18741610017605,269.2134106999729,269.2134106999729,0.03682200005277991,270.2148149001878,270.7503782999702,[0.16782407407407407],[0.14583333333333334],[1],[0],[0],[1.5622167999390513],['Target'],981936,001,2024-10-04_12h03.15.693,Visual Search Task,2024.2.1post4,60.05014181679504,2024-10-04 12h03.26.712753 +0530,
140,0,140,[0.4305555555555556],[-0.30092592592592593],[1],[0],[0],[1.6095459000207484],['Target'],140,0,140,0,270.7966589999851,,5,270.7734241001308,270.7966589999851,270.7966589999851,0.022716099862009287,271.79856620007195,272.38377459999174,[0.4305555555555556],[-0.30092592592592593],[1],[0],[0],[1.6095459000207484],['Target'],981936,001,2024-10-04_12h03.15.693,Visual Search Task,2024.2.1post4,60.05014181679504,2024-10-04 12h03.26.712753 +0530,
141,0,141,[0.03356481481481482],[0.4409722222222222],[1],[0],[0],[1.6605920000001788],['Target'],141,0,141,0,272.43014200008474,,5,272.40603490010835,272.43014200008474,272.43014200008474,0.021980500081554055,273.43189100013115,274.0674682999961,[0.03356481481481482],[0.4409722222222222],[1],[0],[0],[1.6605920000001788],['Target'],981936,001,2024-10-04_12h03.15.693,Visual Search Task,2024.2.1post4,60.05014181679504,2024-10-04 12h03.26.712753 +0530,
142,0,142,[-0.04050925925925926],[0.1388888888888889],[1],[0],[0],[1.7594399000518024],['Target'],142,0,142,0,274.1133926000912,,5,274.0901519001927,274.1133926000912,274.1133926000912,0.022424899972975254,275.1148274000734,275.8504161001183,[-0.04050925925925926],[0.1388888888888889],[1],[0],[0],[1.7594399000518024],['Target'],981936,001,2024-10-04_12h03.15.693,Visual Search Task,2024.2.1post4,60.05014181679504,2024-10-04 12h03.26.712753 +0530,
143,0,143,[-0.08796296296296297],[0.38425925925925924],[1],[0],[0],[1.4953163000755012],['Target'],143,0,143,0,275.913126999978,,10,275.8875804999843,275.913126999978,275.913126999978,0.03690750012174249,276.91475550015457,277.38375909999013,[-0.08796296296296297],[0.38425925925925924],[1],[0],[0],[1.4953163000755012],['Target'],981936,001,2024-10-04_12h03.15.693,Visual Search Task,2024.2.1post4,60.05014181679504,2024-10-04 12h03.26.712753 +0530,
144,0,144,[-0.22569444444444445],[0.45949074074074076],[1],[0],[0],[1.159320600097999],['Target'],144,0,144,0,277.4296329000499,,5,277.4066264000721,277.4296329000499,277.4296329000499,0.022559399949386716,278.4311617000494,278.56674970011227,[-0.22569444444444445],[0.45949074074074076],[1],[0],[0],[1.159320600097999],['Target'],981936,001,2024-10-04_12h03.15.693,Visual Search Task,2024.2.1post4,60.05014181679504,2024-10-04 12h03.26.712753 +0530,
145,0,145,[0.056712962962962965],[0.3263888888888889],[1],[0],[0],[1.6940528999548405],['Target'],145,0,145,0,278.6295653001871,,10,278.60516980011016,278.6295653001871,278.6295653001871,0.03813080000691116,279.63102299999446,280.30029110005125,[0.056712962962962965],[0.3263888888888889],[1],[0],[0],[1.6940528999548405],['Target'],981936,001,2024-10-04_12h03.15.693,Visual Search Task,2024.2.1post4,60.05014181679504,2024-10-04 12h03.26.712753 +0530,
146,0,146,[-0.09375],[0.4050925925925926],[1],[0],[0],[1.3096882000099868],['Target'],146,0,146,0,280.3626984001603,,10,280.33834130014293,280.3626984001603,280.3626984001603,0.03734839987009764,281.3641226000618,281.64871500013396,[-0.09375],[0.4050925925925926],[1],[0],[0],[1.3096882000099868],['Target'],981936,001,2024-10-04_12h03.15.693,Visual Search Task,2024.2.1post4,60.05014181679504,2024-10-04 12h03.26.712753 +0530,
147,0,147,[0.38773148148148145],[-0.03935185185185185],[1],[0],[0],[1.3516871999017894],['Target'],147,0,147,0,281.67913660011254,,5,281.66473429999314,281.67913660011254,281.67913660011254,0.015816899947822094,282.6806656999979,283.01717850007117,[0.38773148148148145],[-0.03935185185185185],[1],[0],[0],[1.3516871999017894],['Target'],981936,001,2024-10-04_12h03.15.693,Visual Search Task,2024.2.1post4,60.05014181679504,2024-10-04 12h03.26.712753 +0530,
148,0,148,[0.3900462962962963],[0.43287037037037035],[1],[0],[0],[2.3372514001093805],['Target'],148,0,148,0,283.06229600007646,,5,283.0443127001636,283.06229600007646,283.06229600007646,0.026883899932727218,284.06386410002597,285.38235300011,[0.3900462962962963],[0.43287037037037035],[1],[0],[0],[2.3372514001093805],['Target'],981936,001,2024-10-04_12h03.15.693,Visual Search Task,2024.2.1post4,60.05014181679504,2024-10-04 12h03.26.712753 +0530,
149,0,149,[-0.46412037037037035],[-0.4085648148148148],[1],[0],[0],[2.9810472999233752],['Target'],149,0,149,0,285.445190400118,,10,285.4185665000696,285.445190400118,285.445190400118,0.03593520005233586,286.4461932000704,288.4005070000421,[-0.46412037037037035],[-0.4085648148148148],[1],[0],[0],[2.9810472999233752],['Target'],981936,001,2024-10-04_12h03.15.693,Visual Search Task,2024.2.1post4,60.05014181679504,2024-10-04 12h03.26.712753 +0530,
150,0,150,[-0.22569444444444445],[-0.18981481481481483],[1],[0],[0],[1.8628312000073493],['Target'],150,0,150,0,288.46095370012335,,10,288.4345397001598,288.46095370012335,288.46095370012335,0.03371570003218949,289.462450500112,290.29809630010277,[-0.22569444444444445],[-0.18981481481481483],[1],[0],[0],[1.8628312000073493],['Target'],981936,001,2024-10-04_12h03.15.693,Visual Search Task,2024.2.1post4,60.05014181679504,2024-10-04 12h03.26.712753 +0530,
151,0,151,[0.19328703703703703],[0.28703703703703703],[1],[0],[0],[1.3917343001812696],['Target'],151,0,151,0,290.34415610018186,,5,290.3225489000324,290.34415610018186,290.34415610018186,0.024127500131726265,291.34568540006876,291.7151052001864,[0.19328703703703703],[0.28703703703703703],[1],[0],[0],[1.3917343001812696],['Target'],981936,001,2024-10-04_12h03.15.693,Visual Search Task,2024.2.1post4,60.05014181679504,2024-10-04 12h03.26.712753 +0530,
152,0,152,[0.25578703703703703],[-0.006944444444444444],[1],[0],[0],[1.3250124999321997],['Target'],152,0,152,0,291.76074900012463,,5,291.7389961001463,291.76074900012463,291.76074900012463,0.023642800049856305,292.76223039999604,293.06482640001923,[0.25578703703703703],[-0.006944444444444444],[1],[0],[0],[1.3250124999321997],['Target'],981936,001,2024-10-04_12h03.15.693,Visual Search Task,2024.2.1post4,60.05014181679504,2024-10-04 12h03.26.712753 +0530,
153,0,153,[0.45949074074074076],[-0.3333333333333333],[1],[0],[0],[1.957535299938172],['Target'],153,0,153,0,293.11083600018173,,5,293.08986190008,293.11083600018173,293.11083600018173,0.024783599888905883,294.1124915999826,295.0482077000197,[0.45949074074074076],[-0.3333333333333333],[1],[0],[0],[1.957535299938172],['Target'],981936,001,2024-10-04_12h03.15.693,Visual Search Task,2024.2.1post4,60.05014181679504,2024-10-04 12h03.26.712753 +0530,
154,0,154,[0.03009259259259259],[0.2835648148148148],[1],[0],[0],[1.3728247000835836],['Target'],154,0,154,0,295.0939897999633,,5,295.07370950002223,295.0939897999633,295.0939897999633,0.0252551999874413,296.0956080001779,296.44736700016074,[0.03009259259259259],[0.2835648148148148],[1],[0],[0],[1.3728247000835836],['Target'],981936,001,2024-10-04_12h03.15.693,Visual Search Task,2024.2.1post4,60.05014181679504,2024-10-04 12h03.26.712753 +0530,
155,0,155,[0.008101851851851851],[0.15393518518518517],[1],[0],[0],[1.1232095998711884],['Target'],155,0,155,0,296.49396120011806,,5,296.47452210006304,296.49396120011806,296.49396120011806,0.026926000136882067,297.49540390004404,297.5986373999622,[0.008101851851851851],[0.15393518518518517],[1],[0],[0],[1.1232095998711884],['Target'],981936,001,2024-10-04_12h03.15.693,Visual Search Task,2024.2.1post4,60.05014181679504,2024-10-04 12h03.26.712753 +0530,
156,0,156,"[-0.1875, 0.10416666666666667]","[0.4375, -0.4351851851851852]","[1, 1]","[0, 0]","[0, 0]","[1.615342800039798, 3.0150055000558496]","[None, 'Target']",156,0,156,0,297.6602692999877,,10,297.6310706001241,297.6602692999877,297.6602692999877,0.032151600113138556,298.66197240003385,300.6468542001676,"[-0.1875, 0.10416666666666667]","[0.4375, -0.4351851851851852]","[1, 1]","[0, 0]","[0, 0]","[1.615342800039798, 3.0150055000558496]","[None, 'Target']",981936,001,2024-10-04_12h03.15.693,Visual Search Task,2024.2.1post4,60.05014181679504,2024-10-04 12h03.26.712753 +0530,
157,0,157,[0.24305555555555555],[0.46875],[1],[0],[0],[1.3367324999999255],['Target'],157,0,157,0,300.7101398999803,,10,300.69306410010904,300.7101398999803,300.7101398999803,0.04584629996679723,301.7113914000802,302.030588200083,[0.24305555555555555],[0.46875],[1],[0],[0],[1.3367324999999255],['Target'],981936,001,2024-10-04_12h03.15.693,Visual Search Task,2024.2.1post4,60.05014181679504,2024-10-04 12h03.26.712753 +0530,
158,0,158,[0.25810185185185186],[0.3136574074074074],[1],[0],[0],[1.406420299783349],['Target'],158,0,158,0,302.0932018000167,,10,302.07322020013817,302.0932018000167,302.0932018000167,0.04231940000317991,303.09479130012915,303.4805032000877,[0.25810185185185186],[0.3136574074074074],[1],[0],[0],[1.406420299783349],['Target'],981936,001,2024-10-04_12h03.15.693,Visual Search Task,2024.2.1post4,60.05014181679504,2024-10-04 12h03.26.712753 +0530,
159,0,159,[0.2465277777777778],[0.22569444444444445],[1],[0],[0],[2.0047428999096155],['Target'],159,0,159,0,303.52638299996033,,5,303.50782579998486,303.52638299996033,303.52638299996033,0.027059399988502264,304.52778290002607,305.51342730014585,[0.2465277777777778],[0.22569444444444445],[1],[0],[0],[2.0047428999096155],['Target'],981936,001,2024-10-04_12h03.15.693,Visual Search Task,2024.2.1post4,60.05014181679504,2024-10-04 12h03.26.712753 +0530,
160,0,160,[0.4039351851851852],[0.34953703703703703],[1],[0],[0],[1.6390265999361873],['Target'],160,0,160,0,305.55952200014144,,5,305.5391567000188,305.55952200014144,305.55952200014144,0.025505000026896596,306.56088980007917,307.17899839999154,[0.4039351851851852],[0.34953703703703703],[1],[0],[0],[1.6390265999361873],['Target'],981936,001,2024-10-04_12h03.15.693,Visual Search Task,2024.2.1post4,60.05014181679504,2024-10-04 12h03.26.712753 +0530,
161,0,161,[0.5023148148148148],[0.44328703703703703],[1],[0],[0],[1.5687434000428766],['Target'],161,0,161,0,307.2423676000908,,10,307.2263325001113,307.2423676000908,307.2423676000908,0.04708199994638562,308.24401070014574,308.7958301999606,[0.5023148148148148],[0.44328703703703703],[1],[0],[0],[1.5687434000428766],['Target'],981936,001,2024-10-04_12h03.15.693,Visual Search Task,2024.2.1post4,60.05014181679504,2024-10-04 12h03.26.712753 +0530,
162,0,162,[-0.38310185185185186],[-0.21643518518518517],[1],[0],[0],[2.5702180000953376],['Target'],162,0,162,0,308.8422024000902,,10,308.82517100009136,308.8422024000902,308.8422024000902,0.029074900085106492,309.84391780011356,311.39624859998,[-0.38310185185185186],[-0.21643518518518517],[1],[0],[0],[2.5702180000953376],['Target'],981936,001,2024-10-04_12h03.15.693,Visual Search Task,2024.2.1post4,60.05014181679504,2024-10-04 12h03.26.712753 +0530,
163,0,163,[-0.49189814814814814],[-0.2604166666666667],[1],[0],[0],[1.593680600170046],['Target'],163,0,163,0,311.4421801001299,,5,311.4176545999944,311.4421801001299,311.4421801001299,0.02107429993338883,312.443363300059,313.01229610014707,[-0.49189814814814814],[-0.2604166666666667],[1],[0],[0],[1.593680600170046],['Target'],981936,001,2024-10-04_12h03.15.693,Visual Search Task,2024.2.1post4,60.05014181679504,2024-10-04 12h03.26.712753 +0530,
164,0,164,[-0.17939814814814814],[0.3287037037037037],[1],[0],[0],[2.5127981998957694],['Target'],164,0,164,0,313.0751712999772,,10,313.04845060012303,313.0751712999772,313.0751712999772,0.035890799947082996,314.07668759999797,315.56212650006637,[-0.17939814814814814],[0.3287037037037037],[1],[0],[0],[2.5127981998957694],['Target'],981936,001,2024-10-04_12h03.15.693,Visual Search Task,2024.2.1post4,60.05014181679504,2024-10-04 12h03.26.712753 +0530,
165,0,165,"[0.15625, 0.15625, 0.13425925925925927]","[-0.16087962962962962, -0.16087962962962962, -0.13425925925925927]","[1, 1, 1]","[0, 0, 0]","[0, 0, 0]","[1.8298888001590967, 2.0627317000180483, 2.8629805999808013]","[None, None, 'Target']",165,0,165,0,315.624733600067,,10,315.59746160008945,315.624733600067,315.624733600067,0.03505920013412833,316.62639550003223,318.46127369999886,"[0.15625, 0.15625, 0.13425925925925927]","[-0.16087962962962962, -0.16087962962962962, -0.13425925925925927]","[1, 1, 1]","[0, 0, 0]","[0, 0, 0]","[1.8298888001590967, 2.0627317000180483, 2.8629805999808013]","[None, None, 'Target']",981936,001,2024-10-04_12h03.15.693,Visual Search Task,2024.2.1post4,60.05014181679504,2024-10-04 12h03.26.712753 +0530,
166,0,166,[0.2534722222222222],[0.4537037037037037],[1],[0],[0],[1.4988905999343842],['Target'],166,0,166,0,318.5243526000995,,10,318.49505460006185,318.5243526000995,318.5243526000995,0.03338930010795593,319.5259326000232,319.99476010003127,[0.2534722222222222],[0.4537037037037037],[1],[0],[0],[1.4988905999343842],['Target'],981936,001,2024-10-04_12h03.15.693,Visual Search Task,2024.2.1post4,60.05014181679504,2024-10-04 12h03.26.712753 +0530,
167,0,167,[-0.3090277777777778],[-0.4930555555555556],[1],[0],[0],[1.93038469995372],['Target'],167,0,167,0,320.05760070006363,,10,320.0293437000364,320.05760070006363,320.05760070006363,0.03424709988757968,321.05929760006256,321.9606474000029,[-0.3090277777777778],[-0.4930555555555556],[1],[0],[0],[1.93038469995372],['Target'],981936,001,2024-10-04_12h03.15.693,Visual Search Task,2024.2.1post4,60.05014181679504,2024-10-04 12h03.26.712753 +0530,
168,0,168,[0.06365740740740741],[0.046296296296296294],[1],[0],[0],[1.4701187999453396],['Target'],168,0,168,0,322.00652990001254,,5,321.9892404000275,322.00652990001254,322.00652990001254,0.028282499872148037,323.00794590008445,323.46015090006404,[0.06365740740740741],[0.046296296296296294],[1],[0],[0],[1.4701187999453396],['Target'],981936,001,2024-10-04_12h03.15.693,Visual Search Task,2024.2.1post4,60.05014181679504,2024-10-04 12h03.26.712753 +0530,
169,0,169,[0.011574074074074073],[0.2800925925925926],[1],[0],[0],[1.2917339999694377],['Target'],169,0,169,0,323.5063565999735,,5,323.48484580009244,323.5063565999735,323.5063565999735,0.024341699900105596,324.5075243001338,324.7774023001548,[0.011574074074074073],[0.2800925925925926],[1],[0],[0],[1.2917339999694377],['Target'],981936,001,2024-10-04_12h03.15.693,Visual Search Task,2024.2.1post4,60.05014181679504,2024-10-04 12h03.26.712753 +0530,
170,0,170,[0.09143518518518519],[0.37037037037037035],[1],[0],[0],[2.2290120001416653],['Target'],170,0,170,0,324.8562543001026,,10,324.8296917001717,324.8562543001026,324.8562543001026,0.05207980005070567,325.85778920003213,327.05963940010406,[0.09143518518518519],[0.37037037037037035],[1],[0],[0],[2.2290120001416653],['Target'],981936,001,2024-10-04_12h03.15.693,Visual Search Task,2024.2.1post4,60.05014181679504,2024-10-04 12h03.26.712753 +0530,
171,0,171,[-0.27662037037037035],[-0.33217592592592593],[1],[0],[0],[1.5274315001443028],['Target'],171,0,171,0,327.1063254000619,,5,327.0822385000065,327.1063254000619,327.1063254000619,0.02223549992777407,328.10804660012946,328.61051980010234,[-0.27662037037037035],[-0.33217592592592593],[1],[0],[0],[1.5274315001443028],['Target'],981936,001,2024-10-04_12h03.15.693,Visual Search Task,2024.2.1post4,60.05014181679504,2024-10-04 12h03.26.712753 +0530,
172,0,172,[0.02199074074074074],[-0.16550925925925927],[1],[0],[0],[1.4084727999288589],['Target'],172,0,172,0,328.65633010002784,,5,328.63425870006904,328.65633010002784,328.65633010002784,0.023502999916672707,329.6578475001734,330.0435139001347,[0.02199074074074074],[-0.16550925925925927],[1],[0],[0],[1.4084727999288589],['Target'],981936,001,2024-10-04_12h03.15.693,Visual Search Task,2024.2.1post4,60.05014181679504,2024-10-04 12h03.26.712753 +0530,
173,0,173,[0.32407407407407407],[0.26851851851851855],[1],[0],[0],[2.093899199971929],['Target'],173,0,173,0,330.10641120001674,,10,330.08184150001034,330.10641120001674,330.10641120001674,0.03805950004607439,331.1078036001418,332.1764959001448,[0.32407407407407407],[0.26851851851851855],[1],[0],[0],[2.093899199971929],['Target'],981936,001,2024-10-04_12h03.15.693,Visual Search Task,2024.2.1post4,60.05014181679504,2024-10-04 12h03.26.712753 +0530,
174,0,174,[-0.26967592592592593],[0.0775462962962963],[1],[0],[0],[1.507305399980396],['Target'],174,0,174,0,332.22277440014295,,5,332.2016557001043,332.22277440014295,332.22277440014295,0.024854099843651056,333.22454269998707,333.7097557000816,[-0.26967592592592593],[0.0775462962962963],[1],[0],[0],[1.507305399980396],['Target'],981936,001,2024-10-04_12h03.15.693,Visual Search Task,2024.2.1post4,60.05014181679504,2024-10-04 12h03.26.712753 +0530,
175,0,175,[-0.44560185185185186],[0.3055555555555556],[1],[0],[0],[1.9768803999759257],['Target'],175,0,175,0,333.7559544001706,,5,333.7317866999656,333.7559544001706,333.7559544001706,0.021794799948111176,334.7573526999913,335.7094610000495,[-0.44560185185185186],[0.3055555555555556],[1],[0],[0],[1.9768803999759257],['Target'],981936,001,2024-10-04_12h03.15.693,Visual Search Task,2024.2.1post4,60.05014181679504,2024-10-04 12h03.26.712753 +0530,
176,0,176,[0.27314814814814814],[-0.2824074074074074],[1],[0],[0],[2.1428948999382555],['Target'],176,0,176,0,335.7555960000027,,5,335.73181590018794,335.7555960000027,335.7555960000027,0.02208360005170107,336.757348400075,337.87545599997975,[0.27314814814814814],[-0.2824074074074074],[1],[0],[0],[2.1428948999382555],['Target'],981936,001,2024-10-04_12h03.15.693,Visual Search Task,2024.2.1post4,60.05014181679504,2024-10-04 12h03.26.712753 +0530,
177,0,177,[0.2488425925925926],[-0.35532407407407407],[1],[0],[0],[2.756806399906054],['Target'],177,0,177,0,337.9386204001494,,10,337.91796340001747,337.9386204001494,337.9386204001494,0.04225179995410144,338.940212600166,340.675495600095,[0.2488425925925926],[-0.35532407407407407],[1],[0],[0],[2.756806399906054],['Target'],981936,001,2024-10-04_12h03.15.693,Visual Search Task,2024.2.1post4,60.05014181679504,2024-10-04 12h03.26.712753 +0530,
178,0,178,[-0.3194444444444444],[-0.125],[1],[0],[0],[1.5583629000466317],['Target'],178,0,178,0,340.73846770008095,,10,340.7167646000162,340.73846770008095,340.73846770008095,0.04094429989345372,341.7396933999844,342.27593930019066,[-0.3194444444444444],[-0.125],[1],[0],[0],[1.5583629000466317],['Target'],981936,001,2024-10-04_12h03.15.693,Visual Search Task,2024.2.1post4,60.05014181679504,2024-10-04 12h03.26.712753 +0530,
179,0,179,[0.023148148148148147],[0.22106481481481483],[1],[0],[0],[2.4055618001148105],['Target'],179,0,179,0,342.3381240000017,,10,342.3188255999703,342.3381240000017,342.3381240000017,0.042574499966576695,343.3397326001432,344.72514280001633,[0.023148148148148147],[0.22106481481481483],[1],[0],[0],[2.4055618001148105],['Target'],981936,001,2024-10-04_12h03.15.693,Visual Search Task,2024.2.1post4,60.05014181679504,2024-10-04 12h03.26.712753 +0530,
180,0,180,[0.5011574074074074],[0.03935185185185185],[1],[0],[0],[2.108944799983874],['Target'],180,0,180,0,344.7878986999858,,10,344.76501090009697,344.7878986999858,344.7878986999858,0.03954129992052913,345.78942980011925,346.8747160001658,[0.5011574074074074],[0.03935185185185185],[1],[0],[0],[2.108944799983874],['Target'],981936,001,2024-10-04_12h03.15.693,Visual Search Task,2024.2.1post4,60.05014181679504,2024-10-04 12h03.26.712753 +0530,
181,0,181,[-0.028935185185185185],[-0.08796296296296297],[1],[0],[0],[1.8261276001576334],['Target'],181,0,181,0,346.9376511001028,,10,346.9146076000761,346.9376511001028,346.9376511001028,0.03955509979277849,347.9390966000501,348.74145910004154,[-0.028935185185185185],[-0.08796296296296297],[1],[0],[0],[1.8261276001576334],['Target'],981936,001,2024-10-04_12h03.15.693,Visual Search Task,2024.2.1post4,60.05014181679504,2024-10-04 12h03.26.712753 +0530,
182,0,182,[-0.02662037037037037],[-0.38773148148148145],[1],[0],[0],[1.7598393999505788],['Target'],182,0,182,0,348.78736279997975,,5,348.7636300001759,348.78736279997975,348.78736279997975,0.021810299949720502,349.78878970001824,350.5242786000017,[-0.02662037037037037],[-0.38773148148148145],[1],[0],[0],[1.7598393999505788],['Target'],981936,001,2024-10-04_12h03.15.693,Visual Search Task,2024.2.1post4,60.05014181679504,2024-10-04 12h03.26.712753 +0530,
183,0,183,[0.2326388888888889],[0.22685185185185186],[1],[0],[0],[1.5709723001345992],['Target'],183,0,183,0,350.58691360009834,,10,350.5688702999614,350.58691360009834,350.58691360009834,0.04433259996585548,351.5885705000255,352.1406241999939,[0.2326388888888889],[0.22685185185185186],[1],[0],[0],[1.5709723001345992],['Target'],981936,001,2024-10-04_12h03.15.693,Visual Search Task,2024.2.1post4,60.05014181679504,2024-10-04 12h03.26.712753 +0530,
184,0,184,[0.2835648148148148],[0.4236111111111111],[1],[0],[0],[1.5250696998555213],['Target'],184,0,184,0,352.1868286000099,,5,352.16489660018124,352.1868286000099,352.1868286000099,0.023985200095921755,353.1885398000013,353.69090420007706,[0.2835648148148148],[0.4236111111111111],[1],[0],[0],[1.5250696998555213],['Target'],981936,001,2024-10-04_12h03.15.693,Visual Search Task,2024.2.1post4,60.05014181679504,2024-10-04 12h03.26.712753 +0530,
185,0,185,[-0.08217592592592593],[0.1863425925925926],[1],[0],[0],[1.3366765999235213],['Target'],185,0,185,0,353.7532284001354,,10,353.73803120013326,353.7532284001354,353.7532284001354,0.04686779994517565,354.7547119001392,355.0755148001481,[-0.08217592592592593],[0.1863425925925926],[1],[0],[0],[1.3366765999235213],['Target'],981936,001,2024-10-04_12h03.15.693,Visual Search Task,2024.2.1post4,60.05014181679504,2024-10-04 12h03.26.712753 +0530,
186,0,186,"[-0.2638888888888889, -0.3113425925925926]","[0.04513888888888889, 0.04861111111111111]","[1, 1]","[0, 0]","[0, 0]","[1.6112345000728965, 2.8103732999879867]","[None, 'Target']",186,0,186,0,355.13646299997345,,10,355.1116277000401,355.13646299997345,355.13646299997345,0.035783000057563186,356.1380062000826,357.9227921999991,"[-0.2638888888888889, -0.3113425925925926]","[0.04513888888888889, 0.04861111111111111]","[1, 1]","[0, 0]","[0, 0]","[1.6112345000728965, 2.8103732999879867]","[None, 'Target']",981936,001,2024-10-04_12h03.15.693,Visual Search Task,2024.2.1post4,60.05014181679504,2024-10-04 12h03.26.712753 +0530,
187,0,187,[-0.2881944444444444],[-0.22685185185185186],[1],[0],[0],[1.7818324000108987],['Target'],187,0,187,0,357.98620260017924,,10,357.95720469998196,357.98620260017924,357.98620260017924,0.03402799996547401,358.9876477001235,359.7398641000036,[-0.2881944444444444],[-0.22685185185185186],[1],[0],[0],[1.7818324000108987],['Target'],981936,001,2024-10-04_12h03.15.693,Visual Search Task,2024.2.1post4,60.05014181679504,2024-10-04 12h03.26.712753 +0530,
188,0,188,[-0.21064814814814814],[0.3425925925925926],[1],[0],[0],[1.5945716998539865],['Target'],188,0,188,0,359.78602880006656,,5,359.7607472999953,359.78602880006656,359.78602880006656,0.0205765999853611,360.7874478001613,361.356178099988,[-0.21064814814814814],[0.3425925925925926],[1],[0],[0],[1.5945716998539865],['Target'],981936,001,2024-10-04_12h03.15.693,Visual Search Task,2024.2.1post4,60.05014181679504,2024-10-04 12h03.26.712753 +0530,
189,0,189,[0.36574074074074076],[0.09259259259259259],[1],[0],[0],[1.4546556000132114],['Target'],189,0,189,0,361.40210380009376,,5,361.3834249000065,361.40210380009376,361.40210380009376,0.02699930011294782,362.4039855999872,362.83891920000315,[0.36574074074074076],[0.09259259259259259],[1],[0],[0],[1.4546556000132114],['Target'],981936,001,2024-10-04_12h03.15.693,Visual Search Task,2024.2.1post4,60.05014181679504,2024-10-04 12h03.26.712753 +0530,
190,0,190,[-0.1099537037037037],[0.20023148148148148],[1],[0],[0],[1.439811300020665],['Target'],190,0,190,0,362.885363999987,,5,362.86495020007715,362.885363999987,362.885363999987,0.025800199946388602,363.88697450002655,364.3056438001804,[-0.1099537037037037],[0.20023148148148148],[1],[0],[0],[1.439811300020665],['Target'],981936,001,2024-10-04_12h03.15.693,Visual Search Task,2024.2.1post4,60.05014181679504,2024-10-04 12h03.26.712753 +0530,
191,0,191,"[-0.4224537037037037, -0.40046296296296297]","[0.4525462962962963, 0.45717592592592593]","[1, 1]","[0, 0]","[0, 0]","[2.0581265999935567, 3.3930464000441134]","[None, 'Target']",191,0,191,0,364.3519486000296,,5,364.32954040006734,364.3519486000296,364.3519486000296,0.023657700046896935,365.3535112000536,367.72346720006317,"[-0.4224537037037037, -0.40046296296296297]","[0.4525462962962963, 0.45717592592592593]","[1, 1]","[0, 0]","[0, 0]","[2.0581265999935567, 3.3930464000441134]","[None, 'Target']",981936,001,2024-10-04_12h03.15.693,Visual Search Task,2024.2.1post4,60.05014181679504,2024-10-04 12h03.26.712753 +0530,
192,0,192,[-0.034722222222222224],[0.15856481481481483],[1],[0],[0],[1.3620770000852644],['Target'],192,0,192,0,367.7847204999998,,10,367.76046969997697,367.7847204999998,367.7847204999998,0.03667830000631511,368.78625860018656,369.12339630001225,[-0.034722222222222224],[0.15856481481481483],[1],[0],[0],[1.3620770000852644],['Target'],981936,001,2024-10-04_12h03.15.693,Visual Search Task,2024.2.1post4,60.05014181679504,2024-10-04 12h03.26.712753 +0530,
193,0,193,[0.2777777777777778],[-0.22569444444444445],[1],[0],[0],[1.426424500066787],['Target'],193,0,193,0,369.18481150013395,,10,369.16255350015126,369.18481150013395,369.18481150013395,0.038773000007495284,370.1861088001169,370.58978390018456,[0.2777777777777778],[-0.22569444444444445],[1],[0],[0],[1.426424500066787],['Target'],981936,001,2024-10-04_12h03.15.693,Visual Search Task,2024.2.1post4,60.05014181679504,2024-10-04 12h03.26.712753 +0530,
194,0,194,[-0.38310185185185186],[0.24189814814814814],[1],[0],[0],[1.337719100061804],['Target'],194,0,194,0,370.63435930013657,,5,370.61656770017,370.63435930013657,370.63435930013657,0.026517299935221672,371.6360701001249,371.9550890000537,[-0.38310185185185186],[0.24189814814814814],[1],[0],[0],[1.337719100061804],['Target'],981936,001,2024-10-04_12h03.15.693,Visual Search Task,2024.2.1post4,60.05014181679504,2024-10-04 12h03.26.712753 +0530,
195,0,195,[0.4756944444444444],[0.27199074074074076],[1],[0],[0],[4.173343200003728],['Target'],195,0,195,0,372.0174977001734,,10,371.9967830001842,372.0174977001734,372.0174977001734,0.04143720003776252,373.0193494001869,376.17085390002467,[0.4756944444444444],[0.27199074074074076],[1],[0],[0],[4.173343200003728],['Target'],981936,001,2024-10-04_12h03.15.693,Visual Search Task,2024.2.1post4,60.05014181679504,2024-10-04 12h03.26.712753 +0530,
196,0,196,[0.020833333333333332],[0.07291666666666667],[1],[0],[0],[1.4258144998457283],['Target'],196,0,196,0,376.2172220000066,,5,376.195846500108,376.2172220000066,376.2172220000066,0.024678300134837627,377.21861970005557,377.6225170001853,[0.020833333333333332],[0.07291666666666667],[1],[0],[0],[1.4258144998457283],['Target'],981936,001,2024-10-04_12h03.15.693,Visual Search Task,2024.2.1post4,60.05014181679504,2024-10-04 12h03.26.712753 +0530,
197,0,197,[0.06828703703703703],[-0.33449074074074076],[1],[0],[0],[1.8736872000154108],['Target'],197,0,197,0,377.6834780999925,,10,377.66332970000803,377.6834780999925,377.6834780999925,0.04052820010110736,378.6851757999975,379.53778120013885,[0.06828703703703703],[-0.33449074074074076],[1],[0],[0],[1.8736872000154108],['Target'],981936,001,2024-10-04_12h03.15.693,Visual Search Task,2024.2.1post4,60.05014181679504,2024-10-04 12h03.26.712753 +0530,
198,0,198,[-0.11226851851851852],[-0.46064814814814814],[1],[0],[0],[2.1001047999598086],['Target'],198,0,198,0,379.59989800001495,,10,379.57019240013324,379.59989800001495,379.59989800001495,0.03208129992708564,380.6016166000627,381.67109380010515,[-0.11226851851851852],[-0.46064814814814814],[1],[0],[0],[2.1001047999598086],['Target'],981936,001,2024-10-04_12h03.15.693,Visual Search Task,2024.2.1post4,60.05014181679504,2024-10-04 12h03.26.712753 +0530,
199,0,199,[-0.3715277777777778],[0.26967592592592593],[1],[0],[0],[2.657852499978617],['Target'],199,0,199,0,381.73300680005923,,10,381.7116605001502,381.73300680005923,381.73300680005923,0.04025770002044737,382.73450040002353,384.37027810001746,[-0.3715277777777778],[0.26967592592592593],[1],[0],[0],[2.657852499978617],['Target'],981936,001,2024-10-04_12h03.15.693,Visual Search Task,2024.2.1post4,60.05014181679504,2024-10-04 12h03.26.712753 +0530,
