thisN,thisTrialN,thisRepN,mouse.x,mouse.y,mouse.leftButton,mouse.midButton,mouse.rightButton,mouse.time,mouse.clicked_name,Trials.thisRepN,Trials.thisTrialN,Trials.thisN,Trials.thisIndex,thisRow.t,notes,num_distr,trial.started,Fixation.started,Target.started,mouse.started,Fixation.stopped,trial.stopped,Trials.mouse.x,Trials.mouse.y,Trials.mouse.leftButton,Trials.mouse.midButton,Trials.mouse.rightButton,Trials.mouse.time,Trials.mouse.clicked_name,participant,session,date,expName,psychopyVersion,frameRate,expStart,
0,0,0,[-0.2048611111111111],[-0.05439814814814815],[1],[0],[0],[2.629949599970132],['Target'],0,0,0,0,0.08702290011569858,,10,0.059762599878013134,0.08702290011569858,0.08702290011569858,0.05944660026580095,1.0881656999699771,2.690196600276977,[-0.2048611111111111],[-0.05439814814814815],[1],[0],[0],[2.629949599970132],['Target'],2,002,2024-10-10_21h18.39.679,Visual Search Task,2024.2.1post4,60.06763619786393,2024-10-10 21h18.59.270698 +0530,
1,0,1,[0.24074074074074073],[-0.07523148148148148],[1],[0],[0],[2.5076151001267135],['Target'],1,0,1,0,2.7366935000754893,,10,2.7147416002117097,2.7366935000754893,2.7366935000754893,0.024378000292927027,3.7381679001264274,5.222921899985522,[0.24074074074074073],[-0.07523148148148148],[1],[0],[0],[2.5076151001267135],['Target'],2,002,2024-10-10_21h18.39.679,Visual Search Task,2024.2.1post4,60.06763619786393,2024-10-10 21h18.59.270698 +0530,
2,0,2,[-0.4074074074074074],[0.36921296296296297],[1],[0],[0],[3.324791199993342],['Target'],2,0,2,0,5.269963200204074,,10,5.247166899964213,5.269963200204074,5.269963200204074,0.024105799850076437,6.271094200201333,8.572451199870557,[-0.4074074074074074],[0.36921296296296297],[1],[0],[0],[3.324791199993342],['Target'],2,002,2024-10-10_21h18.39.679,Visual Search Task,2024.2.1post4,60.06763619786393,2024-10-10 21h18.59.270698 +0530,
3,0,3,[-0.006944444444444444],[-0.3715277777777778],[1],[0],[0],[2.0860870997421443],['Target'],3,0,3,0,8.602500400040299,,5,8.585292200092226,8.602500400040299,8.602500400040299,0.012707799673080444,9.603646600153297,10.67189390026033,[-0.006944444444444444],[-0.3715277777777778],[1],[0],[0],[2.0860870997421443],['Target'],2,002,2024-10-10_21h18.39.679,Visual Search Task,2024.2.1post4,60.06763619786393,2024-10-10 21h18.59.270698 +0530,
4,0,4,[0.16203703703703703],[0.2326388888888889],[1],[0],[0],[2.6360112000256777],['Target'],4,0,4,0,10.702683799900115,,5,10.684717500116676,10.702683799900115,10.702683799900115,0.012699099723249674,11.704114600084722,13.321213299874216,[0.16203703703703703],[0.2326388888888889],[1],[0],[0],[2.6360112000256777],['Target'],2,002,2024-10-10_21h18.39.679,Visual Search Task,2024.2.1post4,60.06763619786393,2024-10-10 21h18.59.270698 +0530,
5,0,5,[-0.2951388888888889],[0.39467592592592593],[1],[0],[0],[2.0363753996789455],['Target'],5,0,5,0,13.35226650023833,,5,13.33445949992165,13.35226650023833,13.35226650023833,0.013134399894624949,14.353483899962157,15.37132260017097,[-0.2951388888888889],[0.39467592592592593],[1],[0],[0],[2.0363753996789455],['Target'],2,002,2024-10-10_21h18.39.679,Visual Search Task,2024.2.1post4,60.06763619786393,2024-10-10 21h18.59.270698 +0530,
6,0,6,[0.5023148148148148],[0.02662037037037037],[1],[0],[0],[2.44000479998067],['Target'],6,0,6,0,15.418424000032246,,10,15.39685510005802,15.418424000032246,15.418424000032246,0.025419600307941437,16.420057999901474,17.837328200228512,[0.5023148148148148],[0.02662037037037037],[1],[0],[0],[2.44000479998067],['Target'],2,002,2024-10-10_21h18.39.679,Visual Search Task,2024.2.1post4,60.06763619786393,2024-10-10 21h18.59.270698 +0530,
7,0,7,[0.06597222222222222],[0.2326388888888889],[1],[0],[0],[1.9374886001460254],['Target'],7,0,7,0,17.868295200169086,,5,17.849677400197834,17.868295200169086,17.868295200169086,0.01227600034326315,18.869198400061578,19.78790090000257,[0.06597222222222222],[0.2326388888888889],[1],[0],[0],[1.9374886001460254],['Target'],2,002,2024-10-10_21h18.39.679,Visual Search Task,2024.2.1post4,60.06763619786393,2024-10-10 21h18.59.270698 +0530,
8,0,8,[0.31712962962962965],[-0.10069444444444445],[1],[0],[0],[1.8568870997987688],['Target'],8,0,8,0,19.834590800106525,,10,19.81275760009885,19.834590800106525,19.834590800106525,0.024745100177824497,20.836123399902135,21.67009750008583,[0.31712962962962965],[-0.10069444444444445],[1],[0],[0],[1.8568870997987688],['Target'],2,002,2024-10-10_21h18.39.679,Visual Search Task,2024.2.1post4,60.06763619786393,2024-10-10 21h18.59.270698 +0530,
9,0,9,[0.1550925925925926],[0.21180555555555555],[1],[0],[0],[1.3744498998858035],['Target'],9,0,9,0,21.701316399965435,,5,21.682031400036067,21.701316399965435,21.701316399965435,0.011823799926787615,22.702376700006425,23.057758000213653,[0.1550925925925926],[0.21180555555555555],[1],[0],[0],[1.3744498998858035],['Target'],2,002,2024-10-10_21h18.39.679,Visual Search Task,2024.2.1post4,60.06763619786393,2024-10-10 21h18.59.270698 +0530,
10,0,10,[0.21180555555555555],[-0.13657407407407407],[1],[0],[0],[2.137301899958402],['Target'],10,0,10,0,23.10066229989752,,5,23.08205209998414,23.10066229989752,23.10066229989752,0.023788699880242348,24.10220510000363,25.219816400203854,[0.21180555555555555],[-0.13657407407407407],[1],[0],[0],[2.137301899958402],['Target'],2,002,2024-10-10_21h18.39.679,Visual Search Task,2024.2.1post4,60.06763619786393,2024-10-10 21h18.59.270698 +0530,
11,0,11,[-0.4050925925925926],[0.22685185185185186],[1],[0],[0],[3.257571500260383],['Target'],11,0,11,0,25.267149100080132,,10,25.244426200166345,25.267149100080132,25.267149100080132,0.024501000065356493,26.268649000208825,28.502462100237608,[-0.4050925925925926],[0.22685185185185186],[1],[0],[0],[3.257571500260383],['Target'],2,002,2024-10-10_21h18.39.679,Visual Search Task,2024.2.1post4,60.06763619786393,2024-10-10 21h18.59.270698 +0530,
12,0,12,[0.21064814814814814],[-0.11458333333333333],[1],[0],[0],[2.5911314003169537],['Target'],12,0,12,0,28.550166999921203,,10,28.527562899980694,28.550166999921203,28.550166999921203,0.024966499768197536,29.5513992998749,31.11917190020904,[0.21064814814814814],[-0.11458333333333333],[1],[0],[0],[2.5911314003169537],['Target'],2,002,2024-10-10_21h18.39.679,Visual Search Task,2024.2.1post4,60.06763619786393,2024-10-10 21h18.59.270698 +0530,
13,0,13,[-0.47337962962962965],[-0.2604166666666667],[1],[0],[0],[2.1585240000858903],['Target'],13,0,13,0,31.166363200172782,,10,31.143695800099522,31.166363200172782,31.166363200172782,0.024369100108742714,32.168163100257516,33.3027538000606,[-0.47337962962962965],[-0.2604166666666667],[1],[0],[0],[2.1585240000858903],['Target'],2,002,2024-10-10_21h18.39.679,Visual Search Task,2024.2.1post4,60.06763619786393,2024-10-10 21h18.59.270698 +0530,
14,0,14,[0.09722222222222222],[0.40625],[1],[0],[0],[2.6406169002875686],['Target'],14,0,14,0,33.3659232002683,,10,33.343944400083274,33.3659232002683,33.3659232002683,0.04096810007467866,34.36739100003615,35.98505849996582,[0.09722222222222222],[0.40625],[1],[0],[0],[2.6406169002875686],['Target'],2,002,2024-10-10_21h18.39.679,Visual Search Task,2024.2.1post4,60.06763619786393,2024-10-10 21h18.59.270698 +0530,
15,0,15,[-0.40046296296296297],[0.009259259259259259],[1],[0],[0],[1.7749124998226762],['Target'],15,0,15,0,36.03239470021799,,10,36.00980499992147,36.03239470021799,36.03239470021799,0.02460339991375804,37.03423670027405,37.785235499963164,[-0.40046296296296297],[0.009259259259259259],[1],[0],[0],[1.7749124998226762],['Target'],2,002,2024-10-10_21h18.39.679,Visual Search Task,2024.2.1post4,60.06763619786393,2024-10-10 21h18.59.270698 +0530,
16,0,16,[0.11689814814814815],[0.12037037037037036],[1],[0],[0],[2.1408918001689017],['Target'],16,0,16,0,37.83260060008615,,10,37.809953700285405,37.83260060008615,37.83260060008615,0.02458109986037016,38.833836500067264,39.95132380025461,[0.11689814814814815],[0.12037037037037036],[1],[0],[0],[2.1408918001689017],['Target'],2,002,2024-10-10_21h18.39.679,Visual Search Task,2024.2.1post4,60.06763619786393,2024-10-10 21h18.59.270698 +0530,
17,0,17,[0.46875],[-0.03819444444444445],[1],[0],[0],[3.724636800121516],['Target'],17,0,17,0,39.99876719992608,,10,39.975763800088316,39.99876719992608,39.99876719992608,0.024289899971336126,41.00011900020763,43.700888600200415,[0.46875],[-0.03819444444444445],[1],[0],[0],[3.724636800121516],['Target'],2,002,2024-10-10_21h18.39.679,Visual Search Task,2024.2.1post4,60.06763619786393,2024-10-10 21h18.59.270698 +0530,
18,0,18,[-0.28587962962962965],[0.2743055555555556],[1],[0],[0],[3.0756549001671374],['Target'],18,0,18,0,43.748081100173295,,10,43.72560210013762,43.748081100173295,43.748081100173295,0.024575399700552225,44.74967860011384,46.80174899986014,[-0.28587962962962965],[0.2743055555555556],[1],[0],[0],[3.0756549001671374],['Target'],2,002,2024-10-10_21h18.39.679,Visual Search Task,2024.2.1post4,60.06763619786393,2024-10-10 21h18.59.270698 +0530,
19,0,19,[0.3101851851851852],[-0.13078703703703703],[1],[0],[0],[2.589840400032699],['Target'],19,0,19,0,46.84766549989581,,10,46.82659360021353,46.84766549989581,46.84766549989581,0.02470539975911379,47.84924820018932,49.41703930031508,[0.3101851851851852],[-0.13078703703703703],[1],[0],[0],[2.589840400032699],['Target'],2,002,2024-10-10_21h18.39.679,Visual Search Task,2024.2.1post4,60.06763619786393,2024-10-10 21h18.59.270698 +0530,
20,0,20,[0.17939814814814814],[-0.25810185185185186],[1],[0],[0],[1.869235800113529],['Target'],20,0,20,0,49.447581300046295,,5,49.43068900005892,49.447581300046295,49.447581300046295,0.013512700330466032,50.44863080000505,51.30047750007361,[0.17939814814814814],[-0.25810185185185186],[1],[0],[0],[1.869235800113529],['Target'],2,002,2024-10-10_21h18.39.679,Visual Search Task,2024.2.1post4,60.06763619786393,2024-10-10 21h18.59.270698 +0530,
21,0,21,[-0.25],[0.26157407407407407],[1],[0],[0],[2.4024332999251783],['Target'],21,0,21,0,51.33067180030048,,5,51.31337499991059,51.33067180030048,51.33067180030048,0.01278909994289279,52.33211319986731,53.716302500106394,[-0.25],[0.26157407407407407],[1],[0],[0],[2.4024332999251783],['Target'],2,002,2024-10-10_21h18.39.679,Visual Search Task,2024.2.1post4,60.06763619786393,2024-10-10 21h18.59.270698 +0530,
22,0,22,[-0.2789351851851852],[0.1712962962962963],[1],[0],[0],[2.874844000209123],['Target'],22,0,22,0,53.76369770010933,,10,53.74051949987188,53.76369770010933,53.76369770010933,0.024077599868178368,54.76465809997171,56.61581279989332,[-0.2789351851851852],[0.1712962962962963],[1],[0],[0],[2.874844000209123],['Target'],2,002,2024-10-10_21h18.39.679,Visual Search Task,2024.2.1post4,60.06763619786393,2024-10-10 21h18.59.270698 +0530,
23,0,23,[-0.17939814814814814],[0.36921296296296297],[1],[0],[0],[1.908432099968195],['Target'],23,0,23,0,56.663228400051594,,10,56.640273000113666,56.663228400051594,56.663228400051594,0.0243196003139019,57.66468140017241,58.54921380011365,[-0.17939814814814814],[0.36921296296296297],[1],[0],[0],[1.908432099968195],['Target'],2,002,2024-10-10_21h18.39.679,Visual Search Task,2024.2.1post4,60.06763619786393,2024-10-10 21h18.59.270698 +0530,
24,0,24,[-0.43287037037037035],[-0.04398148148148148],[1],[0],[0],[1.7068918999284506],['Target'],24,0,24,0,58.59656039997935,,10,58.57471529999748,58.59656039997935,58.59656039997935,0.02535830019041896,59.5976625001058,60.28212910005823,[-0.43287037037037035],[-0.04398148148148148],[1],[0],[0],[1.7068918999284506],['Target'],2,002,2024-10-10_21h18.39.679,Visual Search Task,2024.2.1post4,60.06763619786393,2024-10-10 21h18.59.270698 +0530,
25,0,25,[0.3773148148148148],[0.08564814814814815],[1],[0],[0],[2.253406399860978],['Target'],25,0,25,0,60.312938100192696,,5,60.2950748000294,60.312938100192696,60.312938100192696,0.01278909994289279,61.31424059998244,62.548978600185364,[0.3773148148148148],[0.08564814814814815],[1],[0],[0],[2.253406399860978],['Target'],2,002,2024-10-10_21h18.39.679,Visual Search Task,2024.2.1post4,60.06763619786393,2024-10-10 21h18.59.270698 +0530,
26,0,26,[0.4386574074074074],[-0.20949074074074073],[1],[0],[0],[2.717858700081706],['Target'],26,0,26,0,62.579654899891466,,5,62.562770100310445,62.579654899891466,62.579654899891466,0.013677299953997135,63.580268499907106,65.28114579990506,[0.4386574074074074],[-0.20949074074074073],[1],[0],[0],[2.717858700081706],['Target'],2,002,2024-10-10_21h18.39.679,Visual Search Task,2024.2.1post4,60.06763619786393,2024-10-10 21h18.59.270698 +0530,
27,0,27,[-0.1423611111111111],[-0.2974537037037037],[1],[0],[0],[1.5508697000332177],['Target'],27,0,27,0,65.31198689993471,,5,65.29660680005327,65.31198689993471,65.31198689993471,0.015345300082117319,66.3134216000326,66.84800900006667,[-0.1423611111111111],[-0.2974537037037037],[1],[0],[0],[1.5508697000332177],['Target'],2,002,2024-10-10_21h18.39.679,Visual Search Task,2024.2.1post4,60.06763619786393,2024-10-10 21h18.59.270698 +0530,
28,0,28,[-0.2789351851851852],[0.2569444444444444],[1],[0],[0],[1.8442638996057212],['Target'],28,0,28,0,66.89513830002397,,10,66.87238859990612,66.89513830002397,66.89513830002397,0.024267700035125017,67.89675799990073,68.71798329986632,[-0.2789351851851852],[0.2569444444444444],[1],[0],[0],[1.8442638996057212],['Target'],2,002,2024-10-10_21h18.39.679,Visual Search Task,2024.2.1post4,60.06763619786393,2024-10-10 21h18.59.270698 +0530,
29,0,29,[-0.1076388888888889],[-0.04050925925925926],[1],[0],[0],[1.9935947000049055],['Target'],29,0,29,0,68.77833040012047,,10,68.7533208001405,68.77833040012047,68.77833040012047,0.034825300332158804,69.77985760010779,70.74742559995502,[-0.1076388888888889],[-0.04050925925925926],[1],[0],[0],[1.9935947000049055],['Target'],2,002,2024-10-10_21h18.39.679,Visual Search Task,2024.2.1post4,60.06763619786393,2024-10-10 21h18.59.270698 +0530,
30,0,30,[0.17824074074074073],[-0.2465277777777778],[1],[0],[0],[1.9040071996860206],['Target'],30,0,30,0,70.77831330010667,,5,70.76054609986022,70.77831330010667,70.77831330010667,0.012948600109666586,71.78031020006165,72.6651190998964,[0.17824074074074073],[-0.2465277777777778],[1],[0],[0],[1.9040071996860206],['Target'],2,002,2024-10-10_21h18.39.679,Visual Search Task,2024.2.1post4,60.06763619786393,2024-10-10 21h18.59.270698 +0530,
31,0,31,[-0.40162037037037035],[0.3715277777777778],[1],[0],[0],[2.238308399915695],['Target'],31,0,31,0,72.74472220009193,,10,72.70948169985786,72.74472220009193,72.74472220009193,0.04414620017632842,73.74583580018952,74.94830769998953,[-0.40162037037037035],[0.3715277777777778],[1],[0],[0],[2.238308399915695],['Target'],2,002,2024-10-10_21h18.39.679,Visual Search Task,2024.2.1post4,60.06763619786393,2024-10-10 21h18.59.270698 +0530,
32,0,32,[-0.08680555555555555],[0.25925925925925924],[1],[0],[0],[1.4069838002324104],['Target'],32,0,32,0,74.99443010007963,,10,74.97276670020074,74.99443010007963,74.99443010007963,0.024280999787151814,75.99545070016757,76.3802530001849,[-0.08680555555555555],[0.25925925925925924],[1],[0],[0],[1.4069838002324104],['Target'],2,002,2024-10-10_21h18.39.679,Visual Search Task,2024.2.1post4,60.06763619786393,2024-10-10 21h18.59.270698 +0530,
33,0,33,[0.2349537037037037],[0.08449074074074074],[1],[0],[0],[1.8580924002453685],['Target'],33,0,33,0,76.42734279995784,,10,76.40467200009152,76.42734279995784,76.42734279995784,0.02428580028936267,77.42909080022946,78.26319310022518,[0.2349537037037037],[0.08449074074074074],[1],[0],[0],[1.8580924002453685],['Target'],2,002,2024-10-10_21h18.39.679,Visual Search Task,2024.2.1post4,60.06763619786393,2024-10-10 21h18.59.270698 +0530,
34,0,34,[0.3541666666666667],[0.23842592592592593],[1],[0],[0],[1.5692810998298228],['Target'],34,0,34,0,78.29451810009778,,5,78.27624400006607,78.29451810009778,78.29451810009778,0.012904699891805649,79.29467769991606,79.84598049987108,[0.3541666666666667],[0.23842592592592593],[1],[0],[0],[1.5692810998298228],['Target'],2,002,2024-10-10_21h18.39.679,Visual Search Task,2024.2.1post4,60.06763619786393,2024-10-10 21h18.59.270698 +0530,
35,0,35,[-0.39351851851851855],[-0.13773148148148148],[1],[0],[0],[2.9417296000756323],['Target'],35,0,35,0,79.89333390025422,,10,79.87068849988282,79.89333390025422,79.89333390025422,0.024596599861979485,80.89478640025482,82.81292170006782,[-0.39351851851851855],[-0.13773148148148148],[1],[0],[0],[2.9417296000756323],['Target'],2,002,2024-10-10_21h18.39.679,Visual Search Task,2024.2.1post4,60.06763619786393,2024-10-10 21h18.59.270698 +0530,
36,0,36,[-0.020833333333333332],[-0.027777777777777776],[1],[0],[0],[1.786218199878931],['Target'],36,0,36,0,82.84358200011775,,5,82.82558949990198,82.84358200011775,82.84358200011775,0.012527099810540676,83.8442748002708,84.61228200001642,[-0.020833333333333332],[-0.027777777777777776],[1],[0],[0],[1.786218199878931],['Target'],2,002,2024-10-10_21h18.39.679,Visual Search Task,2024.2.1post4,60.06763619786393,2024-10-10 21h18.59.270698 +0530,
37,0,37,[0.4027777777777778],[-0.20601851851851852],[1],[0],[0],[1.3860246995463967],['Target'],37,0,37,0,84.64329370018095,,5,84.62556680012494,84.64329370018095,84.64329370018095,0.013168000150471926,85.64409720012918,86.01204949989915,[0.4027777777777778],[-0.20601851851851852],[1],[0],[0],[1.3860246995463967],['Target'],2,002,2024-10-10_21h18.39.679,Visual Search Task,2024.2.1post4,60.06763619786393,2024-10-10 21h18.59.270698 +0530,
38,0,38,[0.07523148148148148],[0.03009259259259259],[1],[0],[0],[1.4245462003163993],['Target'],38,0,38,0,86.05934230005369,,10,86.03695760015398,86.05934230005369,86.05934230005369,0.024785500019788742,87.0609985999763,87.46196970017627,[0.07523148148148148],[0.03009259259259259],[1],[0],[0],[1.4245462003163993],['Target'],2,002,2024-10-10_21h18.39.679,Visual Search Task,2024.2.1post4,60.06763619786393,2024-10-10 21h18.59.270698 +0530,
39,0,39,[-0.09259259259259259],[0.009259259259259259],[1],[0],[0],[1.0866196998395026],['Target'],39,0,39,0,87.49305760022253,,5,87.47565330006182,87.49305760022253,87.49305760022253,0.01355639984831214,88.49412690009922,88.56284460006282,[-0.09259259259259259],[0.009259259259259259],[1],[0],[0],[1.0866196998395026],['Target'],2,002,2024-10-10_21h18.39.679,Visual Search Task,2024.2.1post4,60.06763619786393,2024-10-10 21h18.59.270698 +0530,
40,0,40,[-0.2916666666666667],[-0.3460648148148148],[1],[0],[0],[1.3581134998239577],['Target'],40,0,40,0,88.6094076000154,,5,88.5865595000796,88.6094076000154,88.6094076000154,0.023496100213378668,89.61127260001376,89.94522480014712,[-0.2916666666666667],[-0.3460648148148148],[1],[0],[0],[1.3581134998239577],['Target'],2,002,2024-10-10_21h18.39.679,Visual Search Task,2024.2.1post4,60.06763619786393,2024-10-10 21h18.59.270698 +0530,
41,0,41,[0.16666666666666666],[0.2847222222222222],[1],[0],[0],[2.099782499950379],['Target'],41,0,41,0,89.97576060006395,,5,89.96116740023717,89.97576060006395,89.97576060006395,0.015798799693584442,90.9767833002843,92.06145090004429,[0.16666666666666666],[0.2847222222222222],[1],[0],[0],[2.099782499950379],['Target'],2,002,2024-10-10_21h18.39.679,Visual Search Task,2024.2.1post4,60.06763619786393,2024-10-10 21h18.59.270698 +0530,
42,0,42,[-0.3425925925925926],[0.29282407407407407],[1],[0],[0],[2.203348900191486],['Target'],42,0,42,0,92.09209410008043,,5,92.0747795002535,92.09209410008043,92.09209410008043,0.013217399828135967,93.09330340009183,94.27870330028236,[-0.3425925925925926],[0.29282407407407407],[1],[0],[0],[2.203348900191486],['Target'],2,002,2024-10-10_21h18.39.679,Visual Search Task,2024.2.1post4,60.06763619786393,2024-10-10 21h18.59.270698 +0530,
43,0,43,[-0.4849537037037037],[0.19560185185185186],[1],[0],[0],[1.23558109998703],['Target'],43,0,43,0,94.30850460007787,,5,94.2923262999393,94.30850460007787,94.30850460007787,0.013526999857276678,95.30956629989669,95.52838060026988,[-0.4849537037037037],[0.19560185185185186],[1],[0],[0],[1.23558109998703],['Target'],2,002,2024-10-10_21h18.39.679,Visual Search Task,2024.2.1post4,60.06763619786393,2024-10-10 21h18.59.270698 +0530,
44,0,44,[-0.36921296296296297],[-0.3819444444444444],[1],[0],[0],[1.4678871999494731],['Target'],44,0,44,0,95.55846260022372,,5,95.54205220006406,95.55846260022372,95.55846260022372,0.013553000055253506,96.55954320030287,97.01045679999515,[-0.36921296296296297],[-0.3819444444444444],[1],[0],[0],[1.4678871999494731],['Target'],2,002,2024-10-10_21h18.39.679,Visual Search Task,2024.2.1post4,60.06763619786393,2024-10-10 21h18.59.270698 +0530,
45,0,45,[-0.3726851851851852],[-0.059027777777777776],[1],[0],[0],[1.5242963000200689],['Target'],45,0,45,0,97.05839370004833,,10,97.03581390017644,97.05839370004833,97.05839370004833,0.025242900010198355,98.05969480006024,98.56058220006526,[-0.3726851851851852],[-0.059027777777777776],[1],[0],[0],[1.5242963000200689],['Target'],2,002,2024-10-10_21h18.39.679,Visual Search Task,2024.2.1post4,60.06763619786393,2024-10-10 21h18.59.270698 +0530,
46,0,46,[0.3460648148148148],[-0.11226851851851852],[1],[0],[0],[1.5197482998482883],['Target'],46,0,46,0,98.59154559997842,,5,98.57343100011349,98.59154559997842,98.59154559997842,0.012696099933236837,99.59238809999079,100.09372980007902,[0.3460648148148148],[-0.11226851851851852],[1],[0],[0],[1.5197482998482883],['Target'],2,002,2024-10-10_21h18.39.679,Visual Search Task,2024.2.1post4,60.06763619786393,2024-10-10 21h18.59.270698 +0530,
47,0,47,[-0.22453703703703703],[-0.3888888888888889],[1],[0],[0],[2.2077907999046147],['Target'],47,0,47,0,100.14128830004483,,10,100.11846650019288,100.14128830004483,100.14128830004483,0.024619000032544136,101.14205630030483,102.3267763000913,[-0.22453703703703703],[-0.3888888888888889],[1],[0],[0],[2.2077907999046147],['Target'],2,002,2024-10-10_21h18.39.679,Visual Search Task,2024.2.1post4,60.06763619786393,2024-10-10 21h18.59.270698 +0530,
48,0,48,[-0.2916666666666667],[-0.06365740740740741],[1],[0],[0],[1.5743060000240803],['Target'],48,0,48,0,102.37430390017107,,10,102.35161529993638,102.37430390017107,102.37430390017107,0.02468489995226264,103.37553049996495,103.92646560026333,[-0.2916666666666667],[-0.06365740740740741],[1],[0],[0],[1.5743060000240803],['Target'],2,002,2024-10-10_21h18.39.679,Visual Search Task,2024.2.1post4,60.06763619786393,2024-10-10 21h18.59.270698 +0530,
49,0,49,[-0.13773148148148148],[0.03009259259259259],[1],[0],[0],[1.2190364003181458],['Target'],49,0,49,0,103.95711310021579,,5,103.94014149997383,103.95711310021579,103.95711310021579,0.013515600003302097,104.95839929999784,105.15966700017452,[-0.13773148148148148],[0.03009259259259259],[1],[0],[0],[1.2190364003181458],['Target'],2,002,2024-10-10_21h18.39.679,Visual Search Task,2024.2.1post4,60.06763619786393,2024-10-10 21h18.59.270698 +0530,
50,0,50,[-0.23032407407407407],[-0.4664351851851852],[1],[0],[0],[1.5536006996408105],['Target'],50,0,50,0,105.19052070006728,,5,105.17241939995438,105.19052070006728,105.19052070006728,0.012711099814623594,106.19237439986318,106.72680230019614,[-0.23032407407407407],[-0.4664351851851852],[1],[0],[0],[1.5536006996408105],['Target'],2,002,2024-10-10_21h18.39.679,Visual Search Task,2024.2.1post4,60.06763619786393,2024-10-10 21h18.59.270698 +0530,
51,0,51,[0.17592592592592593],[-0.42476851851851855],[1],[0],[0],[2.283801699988544],['Target'],51,0,51,0,106.80689410027117,,10,106.77528419997543,106.80689410027117,106.80689410027117,0.048395099584013224,107.80871149990708,109.05966879986227,[0.17592592592592593],[-0.42476851851851855],[1],[0],[0],[2.283801699988544],['Target'],2,002,2024-10-10_21h18.39.679,Visual Search Task,2024.2.1post4,60.06763619786393,2024-10-10 21h18.59.270698 +0530,
52,0,52,[0.07175925925925926],[-0.2361111111111111],[1],[0],[0],[0.982943500392139],['Target'],52,0,52,0,109.0902399001643,,5,109.07683050027117,109.0902399001643,109.0902399001643,0.016908599995076656,,110.06037840014324,[0.07175925925925926],[-0.2361111111111111],[1],[0],[0],[0.982943500392139],['Target'],2,002,2024-10-10_21h18.39.679,Visual Search Task,2024.2.1post4,60.06763619786393,2024-10-10 21h18.59.270698 +0530,
53,0,53,[-0.018518518518518517],[0.32523148148148145],[1],[0],[0],[2.3929218002595007],['Target'],53,0,53,0,110.10824980027974,,5,110.08593389997259,110.10824980027974,110.10824980027974,0.02531419973820448,111.10764080006629,112.48014690028504,[-0.018518518518518517],[0.32523148148148145],[1],[0],[0],[2.3929218002595007],['Target'],2,002,2024-10-10_21h18.39.679,Visual Search Task,2024.2.1post4,60.06763619786393,2024-10-10 21h18.59.270698 +0530,
54,0,54,[0.4548611111111111],[-0.003472222222222222],[1],[0],[0],[2.44322710018605],['Target'],54,0,54,0,112.55638620024547,,10,112.53150370018557,112.55638620024547,112.55638620024547,0.05079369992017746,113.55759940017015,114.97530149994418,[0.4548611111111111],[-0.003472222222222222],[1],[0],[0],[2.44322710018605],['Target'],2,002,2024-10-10_21h18.39.679,Visual Search Task,2024.2.1post4,60.06763619786393,2024-10-10 21h18.59.270698 +0530,
55,0,55,[-0.2465277777777778],[0.08680555555555555],[1],[0],[0],[10.754740500357002],['Target'],55,0,55,0,115.02250509988517,,10,115.0013915002346,115.02250509988517,115.02250509988517,0.02594490023329854,116.0235553001985,125.75668250024319,[-0.2465277777777778],[0.08680555555555555],[1],[0],[0],[10.754740500357002],['Target'],2,002,2024-10-10_21h18.39.679,Visual Search Task,2024.2.1post4,60.06763619786393,2024-10-10 21h18.59.270698 +0530,
56,0,56,[-0.12037037037037036],[0.3645833333333333],[1],[0],[0],[6.724874899722636],['Target'],56,0,56,0,125.80454070027918,,10,125.78131400002167,125.80454070027918,125.80454070027918,0.024494200013577938,126.80563230020925,132.50665990030393,[-0.12037037037037036],[0.3645833333333333],[1],[0],[0],[6.724874899722636],['Target'],2,002,2024-10-10_21h18.39.679,Visual Search Task,2024.2.1post4,60.06763619786393,2024-10-10 21h18.59.270698 +0530,
57,0,57,[-0.47685185185185186],[0.20833333333333334],[1],[0],[0],[1.1616429002024233],['Target'],57,0,57,0,132.55350669985637,,10,132.5316687002778,132.55350669985637,132.55350669985637,0.024866399820894003,133.55511850025505,133.69414929999039,[-0.47685185185185186],[0.20833333333333334],[1],[0],[0],[1.1616429002024233],['Target'],2,002,2024-10-10_21h18.39.679,Visual Search Task,2024.2.1post4,60.06763619786393,2024-10-10 21h18.59.270698 +0530,
58,0,58,[-0.06018518518518518],[0.23148148148148148],[1],[0],[0],[1.4432649998925626],['Target'],58,0,58,0,133.75383519986644,,10,133.72907980019227,133.75383519986644,133.75383519986644,0.03427329985424876,134.7547593000345,135.17287180013955,[-0.06018518518518518],[0.23148148148148148],[1],[0],[0],[1.4432649998925626],['Target'],2,002,2024-10-10_21h18.39.679,Visual Search Task,2024.2.1post4,60.06763619786393,2024-10-10 21h18.59.270698 +0530,
59,0,59,[0.09259259259259259],[0.26273148148148145],[1],[0],[0],[1.709022399969399],['Target'],59,0,59,0,135.2199206999503,,10,135.1988268001005,135.2199206999503,135.2199206999503,0.02581780031323433,136.2211736999452,136.90874679991975,[0.09259259259259259],[0.26273148148148145],[1],[0],[0],[1.709022399969399],['Target'],2,002,2024-10-10_21h18.39.679,Visual Search Task,2024.2.1post4,60.06763619786393,2024-10-10 21h18.59.270698 +0530,
60,0,60,[-0.20949074074074073],[-0.25],[1],[0],[0],[2.760703499894589],['Target'],60,0,60,0,136.9695737999864,,10,136.94467650027946,136.9695737999864,136.9695737999864,0.035511699970811605,137.97122000018135,139.70590340020135,[-0.20949074074074073],[-0.25],[1],[0],[0],[2.760703499894589],['Target'],2,002,2024-10-10_21h18.39.679,Visual Search Task,2024.2.1post4,60.06763619786393,2024-10-10 21h18.59.270698 +0530,
61,0,61,[0.2604166666666667],[0.32175925925925924],[1],[0],[0],[2.3225019997917116],['Target'],61,0,61,0,139.75281770015135,,10,139.73168169986457,139.75281770015135,139.75281770015135,0.025638799648731947,140.7538368999958,142.05471959989518,[0.2604166666666667],[0.32175925925925924],[1],[0],[0],[2.3225019997917116],['Target'],2,002,2024-10-10_21h18.39.679,Visual Search Task,2024.2.1post4,60.06763619786393,2024-10-10 21h18.59.270698 +0530,
62,0,62,[0.26851851851851855],[0.15625],[1],[0],[0],[1.674165700096637],['Target'],62,0,62,0,142.10251600015908,,10,142.0804524999112,142.10251600015908,142.10251600015908,0.025595400016754866,143.10347250010818,143.75513319997117,[0.26851851851851855],[0.15625],[1],[0],[0],[1.674165700096637],['Target'],2,002,2024-10-10_21h18.39.679,Visual Search Task,2024.2.1post4,60.06763619786393,2024-10-10 21h18.59.270698 +0530,
63,0,63,[-0.4351851851851852],[-0.2569444444444444],[1],[0],[0],[2.118260799907148],['Target'],63,0,63,0,143.7857385999523,,5,143.7690941998735,143.7857385999523,143.7857385999523,0.013841299805790186,144.78663500025868,145.8878713999875,[-0.4351851851851852],[-0.2569444444444444],[1],[0],[0],[2.118260799907148],['Target'],2,002,2024-10-10_21h18.39.679,Visual Search Task,2024.2.1post4,60.06763619786393,2024-10-10 21h18.59.270698 +0530,
64,0,64,[0.03356481481481482],[-0.09143518518518519],[1],[0],[0],[3.2241000002250075],['Target'],64,0,64,0,145.9350843001157,,10,145.9130644001998,145.9350843001157,145.9350843001157,0.025071999989449978,146.93634300027043,149.13766189990565,[0.03356481481481482],[-0.09143518518518519],[1],[0],[0],[3.2241000002250075],['Target'],2,002,2024-10-10_21h18.39.679,Visual Search Task,2024.2.1post4,60.06763619786393,2024-10-10 21h18.59.270698 +0530,
65,0,65,[0.15393518518518517],[-0.2175925925925926],[1],[0],[0],[2.9111584001220763],['Target'],65,0,65,0,149.18488290021196,,10,149.1630112999119,149.18488290021196,149.18488290021196,0.025199600029736757,150.1862010001205,152.07536579994485,[0.15393518518518517],[-0.2175925925925926],[1],[0],[0],[2.9111584001220763],['Target'],2,002,2024-10-10_21h18.39.679,Visual Search Task,2024.2.1post4,60.06763619786393,2024-10-10 21h18.59.270698 +0530,
66,0,66,[0.06597222222222222],[0.0011574074074074073],[1],[0],[0],[1.653297800105065],['Target'],66,0,66,0,152.11779570020735,,5,152.09990300005302,152.11779570020735,152.11779570020735,0.023899800144135952,153.11919090012088,153.75367709994316,[0.06597222222222222],[0.0011574074074074073],[1],[0],[0],[1.653297800105065],['Target'],2,002,2024-10-10_21h18.39.679,Visual Search Task,2024.2.1post4,60.06763619786393,2024-10-10 21h18.59.270698 +0530,
67,0,67,[0.37962962962962965],[0.4664351851851852],[1],[0],[0],[2.4860815997235477],['Target'],67,0,67,0,153.78427529986948,,5,153.76707469997928,153.78427529986948,153.78427529986948,0.013261500280350447,154.7854790003039,156.25362990004942,[0.37962962962962965],[0.4664351851851852],[1],[0],[0],[2.4860815997235477],['Target'],2,002,2024-10-10_21h18.39.679,Visual Search Task,2024.2.1post4,60.06763619786393,2024-10-10 21h18.59.270698 +0530,
68,0,68,[0.3761574074074074],[0.2152777777777778],[1],[0],[0],[1.9690689002163708],['Target'],68,0,68,0,156.28391049988568,,5,156.26670069992542,156.28391049988568,156.28391049988568,0.0129700000397861,157.28506870009005,158.2362270001322,[0.3761574074074074],[0.2152777777777778],[1],[0],[0],[1.9690689002163708],['Target'],2,002,2024-10-10_21h18.39.679,Visual Search Task,2024.2.1post4,60.06763619786393,2024-10-10 21h18.59.270698 +0530,
69,0,69,[-0.10416666666666667],[0.38425925925925924],[1],[0],[0],[1.9867523000575602],['Target'],69,0,69,0,158.2675303001888,,5,158.24834159994498,158.2675303001888,158.2675303001888,0.012060999870300293,159.26835440006107,160.23576140031219,[-0.10416666666666667],[0.38425925925925924],[1],[0],[0],[1.9867523000575602],['Target'],2,002,2024-10-10_21h18.39.679,Visual Search Task,2024.2.1post4,60.06763619786393,2024-10-10 21h18.59.270698 +0530,
70,0,70,[-0.16666666666666666],[0.41087962962962965],[1],[0],[0],[1.352592300157994],['Target'],70,0,70,0,160.2669091001153,,5,160.24958280008286,160.2669091001153,160.2669091001153,0.013714099768549204,161.2678729002364,161.6026205001399,[-0.16666666666666666],[0.41087962962962965],[1],[0],[0],[1.352592300157994],['Target'],2,002,2024-10-10_21h18.39.679,Visual Search Task,2024.2.1post4,60.06763619786393,2024-10-10 21h18.59.270698 +0530,
71,0,71,[-0.024305555555555556],[0.10185185185185185],[1],[0],[0],[1.3528749998658895],['Target'],71,0,71,0,161.63350660027936,,5,161.6159025002271,161.63350660027936,161.63350660027936,0.01315509993582964,162.63461690023541,162.9692734000273,[-0.024305555555555556],[0.10185185185185185],[1],[0],[0],[1.3528749998658895],['Target'],2,002,2024-10-10_21h18.39.679,Visual Search Task,2024.2.1post4,60.06763619786393,2024-10-10 21h18.59.270698 +0530,
72,0,72,[-0.19907407407407407],[0.31712962962962965],[1],[0],[0],[0.9573880000971258],['Target'],72,0,72,0,163.0163485999219,,10,162.99431709991768,163.0163485999219,163.0163485999219,0.02493519987910986,,163.9521750002168,[-0.19907407407407407],[0.31712962962962965],[1],[0],[0],[0.9573880000971258],['Target'],2,002,2024-10-10_21h18.39.679,Visual Search Task,2024.2.1post4,60.06763619786393,2024-10-10 21h18.59.270698 +0530,
73,0,73,[0.2638888888888889],[0.15162037037037038],[1],[0],[0],[1.174085000064224],['Target'],73,0,73,0,163.99959779996425,,10,163.97793170018122,163.99959779996425,163.99959779996425,0.025625099893659353,165.00101960031316,165.152508799918,[0.2638888888888889],[0.15162037037037038],[1],[0],[0],[1.174085000064224],['Target'],2,002,2024-10-10_21h18.39.679,Visual Search Task,2024.2.1post4,60.06763619786393,2024-10-10 21h18.59.270698 +0530,
74,0,74,[-0.18055555555555555],[-0.4675925925925926],[1],[0],[0],[1.9350862996652722],['Target'],74,0,74,0,165.1826532999985,,5,165.16628949996084,165.1826532999985,165.1826532999985,0.01367870019748807,166.1838980000466,167.10186519986019,[-0.18055555555555555],[-0.4675925925925926],[1],[0],[0],[1.9350862996652722],['Target'],2,002,2024-10-10_21h18.39.679,Visual Search Task,2024.2.1post4,60.06763619786393,2024-10-10 21h18.59.270698 +0530,
75,0,75,[0.18981481481481483],[-0.1284722222222222],[1],[0],[0],[2.175653699785471],['Target'],75,0,75,0,167.1490083001554,,10,167.12652930011973,167.1490083001554,167.1490083001554,0.024568799883127213,168.1503591001965,169.30269060004503,[0.18981481481481483],[-0.1284722222222222],[1],[0],[0],[2.175653699785471],['Target'],2,002,2024-10-10_21h18.39.679,Visual Search Task,2024.2.1post4,60.06763619786393,2024-10-10 21h18.59.270698 +0530,
76,0,76,[0.11342592592592593],[-0.12731481481481483],[1],[0],[0],[0.8844114001840353],['Target'],76,0,76,0,169.33242730004713,,5,169.31622610008344,169.33242730004713,169.33242730004713,0.013394699897617102,,170.20121339987963,[0.11342592592592593],[-0.12731481481481483],[1],[0],[0],[0.8844114001840353],['Target'],2,002,2024-10-10_21h18.39.679,Visual Search Task,2024.2.1post4,60.06763619786393,2024-10-10 21h18.59.270698 +0530,
77,0,77,[0.1076388888888889],[0.034722222222222224],[1],[0],[0],[0.874827700201422],['Target'],77,0,77,0,170.2487892000936,,10,170.22579549998045,170.2487892000936,170.2487892000936,0.02447490021586418,,171.10108319995925,[0.1076388888888889],[0.034722222222222224],[1],[0],[0],[0.874827700201422],['Target'],2,002,2024-10-10_21h18.39.679,Visual Search Task,2024.2.1post4,60.06763619786393,2024-10-10 21h18.59.270698 +0530,
78,0,78,[0.41087962962962965],[0.1087962962962963],[1],[0],[0],[3.6362450001761317],['Target'],78,0,78,0,171.1322289998643,,5,171.1149149001576,171.1322289998643,171.1322289998643,0.013695199973881245,172.13359260000288,174.7517134998925,[0.41087962962962965],[0.1087962962962963],[1],[0],[0],[3.6362450001761317],['Target'],2,002,2024-10-10_21h18.39.679,Visual Search Task,2024.2.1post4,60.06763619786393,2024-10-10 21h18.59.270698 +0530,
79,0,79,[0.41782407407407407],[-0.05555555555555555],[1],[0],[0],[2.1454051001928747],['Target'],79,0,79,0,174.79827730031684,,5,174.77169089997187,174.79827730031684,174.79827730031684,0.0197821999900043,175.7994003999047,176.91759809991345,[0.41782407407407407],[-0.05555555555555555],[1],[0],[0],[2.1454051001928747],['Target'],2,002,2024-10-10_21h18.39.679,Visual Search Task,2024.2.1post4,60.06763619786393,2024-10-10 21h18.59.270698 +0530,
80,0,80,[0.4837962962962963],[0.47800925925925924],[1],[0],[0],[2.585907300002873],['Target'],80,0,80,0,176.9478903999552,,5,176.93061379995197,176.9478903999552,176.9478903999552,0.01291840011253953,177.94922470021993,179.51706970017403,[0.4837962962962963],[0.47800925925925924],[1],[0],[0],[2.585907300002873],['Target'],2,002,2024-10-10_21h18.39.679,Visual Search Task,2024.2.1post4,60.06763619786393,2024-10-10 21h18.59.270698 +0530,
81,0,81,[0.37962962962962965],[0.32523148148148145],[1],[0],[0],[2.0412181997671723],['Target'],81,0,81,0,179.56471419986337,,10,179.54178750002757,179.56471419986337,179.56471419986337,0.02460009977221489,180.565717600286,181.58350430009887,[0.37962962962962965],[0.32523148148148145],[1],[0],[0],[2.0412181997671723],['Target'],2,002,2024-10-10_21h18.39.679,Visual Search Task,2024.2.1post4,60.06763619786393,2024-10-10 21h18.59.270698 +0530,
82,0,82,[-0.23148148148148148],[-0.3599537037037037],[1],[0],[0],[2.519755800254643],['Target'],82,0,82,0,181.61380180018023,,5,181.5966793000698,181.61380180018023,181.61380180018023,0.01302550034597516,182.6154769998975,184.1169249000959,[-0.23148148148148148],[-0.3599537037037037],[1],[0],[0],[2.519755800254643],['Target'],2,002,2024-10-10_21h18.39.679,Visual Search Task,2024.2.1post4,60.06763619786393,2024-10-10 21h18.59.270698 +0530,
83,0,83,[-0.27199074074074076],[-0.4074074074074074],[1],[0],[0],[1.9856203999370337],['Target'],83,0,83,0,184.14757010014728,,5,184.12985680019483,184.14757010014728,184.14757010014728,0.01282869977876544,185.14815929997712,186.1160062002018,[-0.27199074074074076],[-0.4074074074074074],[1],[0],[0],[1.9856203999370337],['Target'],2,002,2024-10-10_21h18.39.679,Visual Search Task,2024.2.1post4,60.06763619786393,2024-10-10 21h18.59.270698 +0530,
84,0,84,[0.3229166666666667],[0.4710648148148148],[1],[0],[0],[2.287493099924177],['Target'],84,0,84,0,186.1468879999593,,5,186.1281516002491,186.1468879999593,186.1468879999593,0.012092600110918283,187.1483026999049,188.41627150028944,[0.3229166666666667],[0.4710648148148148],[1],[0],[0],[2.287493099924177],['Target'],2,002,2024-10-10_21h18.39.679,Visual Search Task,2024.2.1post4,60.06763619786393,2024-10-10 21h18.59.270698 +0530,
85,0,85,[0.1736111111111111],[-0.24189814814814814],[1],[0],[0],[1.9847455997951329],['Target'],85,0,85,0,188.44658540003002,,5,188.43039190024137,188.44658540003002,188.44658540003002,0.01405279990285635,189.4480373999104,190.4156840001233,[0.1736111111111111],[-0.24189814814814814],[1],[0],[0],[1.9847455997951329],['Target'],2,002,2024-10-10_21h18.39.679,Visual Search Task,2024.2.1post4,60.06763619786393,2024-10-10 21h18.59.270698 +0530,
86,0,86,[-0.01273148148148148],[0.19212962962962962],[1],[0],[0],[1.85655099991709],['Target'],86,0,86,0,190.46272099995986,,10,190.44260250031948,190.46272099995986,190.46272099995986,0.026796000078320503,191.46426839986816,192.29964140010998,[-0.01273148148148148],[0.19212962962962962],[1],[0],[0],[1.85655099991709],['Target'],2,002,2024-10-10_21h18.39.679,Visual Search Task,2024.2.1post4,60.06763619786393,2024-10-10 21h18.59.270698 +0530,
87,0,87,[-0.17476851851851852],[-0.4386574074074074],[1],[0],[0],[2.5850686002522707],['Target'],87,0,87,0,192.3294542999938,,5,192.31310989987105,192.3294542999938,192.3294542999938,0.01332300016656518,193.33109280001372,194.89867749996483,[-0.17476851851851852],[-0.4386574074074074],[1],[0],[0],[2.5850686002522707],['Target'],2,002,2024-10-10_21h18.39.679,Visual Search Task,2024.2.1post4,60.06763619786393,2024-10-10 21h18.59.270698 +0530,
88,0,88,[0.02199074074074074],[0.4675925925925926],[1],[0],[0],[1.907519900240004],['Target'],88,0,88,0,194.94619450019673,,10,194.92393539985642,194.94619450019673,194.94619450019673,0.025161700323224068,195.94693219987676,196.83194589987397,[0.02199074074074074],[0.4675925925925926],[1],[0],[0],[1.907519900240004],['Target'],2,002,2024-10-10_21h18.39.679,Visual Search Task,2024.2.1post4,60.06763619786393,2024-10-10 21h18.59.270698 +0530,
89,0,89,[-0.26157407407407407],[-0.34953703703703703],[1],[0],[0],[1.352452200371772],['Target'],89,0,89,0,196.86246669990942,,5,196.84494099998847,196.86246669990942,196.86246669990942,0.012869799975305796,197.8632860002108,198.19785360014066,[-0.26157407407407407],[-0.34953703703703703],[1],[0],[0],[1.352452200371772],['Target'],2,002,2024-10-10_21h18.39.679,Visual Search Task,2024.2.1post4,60.06763619786393,2024-10-10 21h18.59.270698 +0530,
90,0,90,[0.21412037037037038],[0.04976851851851852],[1],[0],[0],[1.4200960998423398],['Target'],90,0,90,0,198.22850920027122,,5,198.21156900003552,198.22850920027122,198.22850920027122,0.0136052998714149,199.23014890030026,199.63220199989155,[0.21412037037037038],[0.04976851851851852],[1],[0],[0],[1.4200960998423398],['Target'],2,002,2024-10-10_21h18.39.679,Visual Search Task,2024.2.1post4,60.06763619786393,2024-10-10 21h18.59.270698 +0530,
91,0,91,[-0.26967592592592593],[0.10300925925925926],[1],[0],[0],[1.4701375998556614],['Target'],91,0,91,0,199.7118865000084,,10,199.67748309997842,199.7118865000084,199.7118865000084,0.0450463998131454,200.71351520018652,201.14829620020464,[-0.26967592592592593],[0.10300925925925926],[1],[0],[0],[1.4701375998556614],['Target'],2,002,2024-10-10_21h18.39.679,Visual Search Task,2024.2.1post4,60.06763619786393,2024-10-10 21h18.59.270698 +0530,
92,0,92,[-0.1388888888888889],[0.25],[1],[0],[0],[1.179554299917072],['Target'],92,0,92,0,201.19507989985868,,5,201.16829050006345,201.19507989985868,201.19507989985868,0.019776300061494112,202.19607850024477,202.34859950002283,[-0.1388888888888889],[0.25],[1],[0],[0],[1.179554299917072],['Target'],2,002,2024-10-10_21h18.39.679,Visual Search Task,2024.2.1post4,60.06763619786393,2024-10-10 21h18.59.270698 +0530,
93,0,93,[0.03356481481481482],[-0.17824074074074073],[1],[0],[0],[2.356298199854791],['Target'],93,0,93,0,202.411406500265,,10,202.39053480001166,202.411406500265,202.411406500265,0.041763899847865105,203.41367979999632,204.74743640003726,[0.03356481481481482],[-0.17824074074074073],[1],[0],[0],[2.356298199854791],['Target'],2,002,2024-10-10_21h18.39.679,Visual Search Task,2024.2.1post4,60.06763619786393,2024-10-10 21h18.59.270698 +0530,
94,0,94,[0.3368055555555556],[-0.14467592592592593],[1],[0],[0],[1.273310599848628],['Target'],94,0,94,0,204.79448880022392,,10,204.77320270007476,204.79448880022392,204.79448880022392,0.025635499972850084,205.7960453000851,206.0469677001238,[0.3368055555555556],[-0.14467592592592593],[1],[0],[0],[1.273310599848628],['Target'],2,002,2024-10-10_21h18.39.679,Visual Search Task,2024.2.1post4,60.06763619786393,2024-10-10 21h18.59.270698 +0530,
95,0,95,[0.18287037037037038],[-0.32060185185185186],[1],[0],[0],[1.6981204999610782],['Target'],95,0,95,0,206.0776778999716,,5,206.06519429991022,206.0776778999716,206.0776778999716,0.018070300109684467,207.07980700023472,207.76382749993354,[0.18287037037037038],[-0.32060185185185186],[1],[0],[0],[1.6981204999610782],['Target'],2,002,2024-10-10_21h18.39.679,Visual Search Task,2024.2.1post4,60.06763619786393,2024-10-10 21h18.59.270698 +0530,
96,0,96,[0.03125],[-0.15162037037037038],[1],[0],[0],[1.1850512004457414],['Target'],96,0,96,0,207.8109532999806,,10,207.79387609986588,207.8109532999806,207.8109532999806,0.029929399956017733,208.81189080001786,208.979494899977,[0.03125],[-0.15162037037037038],[1],[0],[0],[1.1850512004457414],['Target'],2,002,2024-10-10_21h18.39.679,Visual Search Task,2024.2.1post4,60.06763619786393,2024-10-10 21h18.59.270698 +0530,
97,0,97,[0.0023148148148148147],[0.1400462962962963],[1],[0],[0],[0.9267226001247764],['Target'],97,0,97,0,209.0274263001047,,10,209.00420810002834,209.0274263001047,209.0274263001047,0.024581499863415956,,209.93141489988193,[0.0023148148148148147],[0.1400462962962963],[1],[0],[0],[0.9267226001247764],['Target'],2,002,2024-10-10_21h18.39.679,Visual Search Task,2024.2.1post4,60.06763619786393,2024-10-10 21h18.59.270698 +0530,
98,0,98,[0.20023148148148148],[0.4270833333333333],[1],[0],[0],[2.517665300052613],['Target'],98,0,98,0,209.96076080016792,,5,209.94468620000407,209.96076080016792,209.96076080016792,0.013138600159436464,210.9617337002419,212.4628651002422,[0.20023148148148148],[0.4270833333333333],[1],[0],[0],[2.517665300052613],['Target'],2,002,2024-10-10_21h18.39.679,Visual Search Task,2024.2.1post4,60.06763619786393,2024-10-10 21h18.59.270698 +0530,
99,0,99,[0.3715277777777778],[-0.29398148148148145],[1],[0],[0],[1.6196765000931919],['Target'],99,0,99,0,212.49340240005404,,5,212.47562640020624,212.49340240005404,212.49340240005404,0.012731400318443775,213.49474269989878,214.09620610019192,[0.3715277777777778],[-0.29398148148148145],[1],[0],[0],[1.6196765000931919],['Target'],2,002,2024-10-10_21h18.39.679,Visual Search Task,2024.2.1post4,60.06763619786393,2024-10-10 21h18.59.270698 +0530,
100,0,100,[-0.3819444444444444],[0.4618055555555556],[1],[0],[0],[2.802378899883479],['Target'],100,0,100,0,214.1269714999944,,5,214.10930939996615,214.1269714999944,214.1269714999944,0.013002599589526653,215.1278389999643,216.9122287002392,[-0.3819444444444444],[0.4618055555555556],[1],[0],[0],[2.802378899883479],['Target'],2,002,2024-10-10_21h18.39.679,Visual Search Task,2024.2.1post4,60.06763619786393,2024-10-10 21h18.59.270698 +0530,
101,0,101,[0.30671296296296297],[-0.0763888888888889],[1],[0],[0],[1.1700864001177251],['Target'],101,0,101,0,216.9428117000498,,5,216.9257127000019,216.9428117000498,216.9428117000498,0.01337389973923564,217.94406710006297,218.0962864998728,[0.30671296296296297],[-0.0763888888888889],[1],[0],[0],[1.1700864001177251],['Target'],2,002,2024-10-10_21h18.39.679,Visual Search Task,2024.2.1post4,60.06763619786393,2024-10-10 21h18.59.270698 +0530,
102,0,102,[-0.06597222222222222],[-0.12384259259259259],[1],[0],[0],[1.0682307002134621],['Target'],102,0,102,0,218.12633690005168,,5,218.1098909000866,218.12633690005168,218.12633690005168,0.013474899809807539,219.12767620012164,219.17858220031485,[-0.06597222222222222],[-0.12384259259259259],[1],[0],[0],[1.0682307002134621],['Target'],2,002,2024-10-10_21h18.39.679,Visual Search Task,2024.2.1post4,60.06763619786393,2024-10-10 21h18.59.270698 +0530,
103,0,103,[-0.3912037037037037],[0.3576388888888889],[1],[0],[0],[1.9064058000221848],['Target'],103,0,103,0,219.22632439993322,,10,219.20495179994032,219.22632439993322,219.22632439993322,0.02622450003400445,220.22712039994076,221.11181070003659,[-0.3912037037037037],[0.3576388888888889],[1],[0],[0],[1.9064058000221848],['Target'],2,002,2024-10-10_21h18.39.679,Visual Search Task,2024.2.1post4,60.06763619786393,2024-10-10 21h18.59.270698 +0530,
104,0,104,[-0.27546296296296297],[-0.4212962962962963],[1],[0],[0],[2.641563099808991],['Target'],104,0,104,0,221.15895939990878,,10,221.1365010999143,221.15895939990878,221.15895939990878,0.02454809984192252,222.1601698002778,223.77852200018242,[-0.27546296296296297],[-0.4212962962962963],[1],[0],[0],[2.641563099808991],['Target'],2,002,2024-10-10_21h18.39.679,Visual Search Task,2024.2.1post4,60.06763619786393,2024-10-10 21h18.59.270698 +0530,
105,0,105,[0.2638888888888889],[-0.032407407407407406],[1],[0],[0],[1.7359367995522916],['Target'],105,0,105,0,223.80906300013885,,5,223.79176390031353,223.80906300013885,223.80906300013885,0.013109199702739716,224.8098442000337,225.528192400001,[0.2638888888888889],[-0.032407407407407406],[1],[0],[0],[1.7359367995522916],['Target'],2,002,2024-10-10_21h18.39.679,Visual Search Task,2024.2.1post4,60.06763619786393,2024-10-10 21h18.59.270698 +0530,
106,0,106,[-0.44675925925925924],[-0.16203703703703703],[1],[0],[0],[1.3354914002120495],['Target'],106,0,106,0,225.5589284999296,,5,225.5414291000925,225.5589284999296,225.5589284999296,0.013128299731761217,226.5594496000558,226.87738740025088,[-0.44675925925925924],[-0.16203703703703703],[1],[0],[0],[1.3354914002120495],['Target'],2,002,2024-10-10_21h18.39.679,Visual Search Task,2024.2.1post4,60.06763619786393,2024-10-10 21h18.59.270698 +0530,
107,0,107,[0.4351851851851852],[-0.3368055555555556],[1],[0],[0],[1.4697007997892797],['Target'],107,0,107,0,226.90829659998417,,5,226.89023900032043,226.90829659998417,226.90829659998417,0.01283299969509244,227.9093921002932,228.3606850001961,[0.4351851851851852],[-0.3368055555555556],[1],[0],[0],[1.4697007997892797],['Target'],2,002,2024-10-10_21h18.39.679,Visual Search Task,2024.2.1post4,60.06763619786393,2024-10-10 21h18.59.270698 +0530,
108,0,108,[-0.1909722222222222],[0.4710648148148148],[1],[0],[0],[2.619895299896598],['Target'],108,0,108,0,228.39151450013742,,5,228.37329290015623,228.39151450013742,228.39151450013742,0.01253709988668561,229.39252329990268,230.99403179995716,[-0.1909722222222222],[0.4710648148148148],[1],[0],[0],[2.619895299896598],['Target'],2,002,2024-10-10_21h18.39.679,Visual Search Task,2024.2.1post4,60.06763619786393,2024-10-10 21h18.59.270698 +0530,
109,0,109,[0.42824074074074076],[0.17592592592592593],[1],[0],[0],[1.8236588002182543],['Target'],109,0,109,0,231.04118720022961,,10,231.01973759988323,231.04118720022961,231.04118720022961,0.02558750007301569,232.04251180030406,232.8438804000616,[0.42824074074074076],[0.17592592592592593],[1],[0],[0],[1.8236588002182543],['Target'],2,002,2024-10-10_21h18.39.679,Visual Search Task,2024.2.1post4,60.06763619786393,2024-10-10 21h18.59.270698 +0530,
110,0,110,[0.3784722222222222],[-0.3599537037037037],[1],[0],[0],[2.7401179000735283],['Target'],110,0,110,0,232.89104360016063,,10,232.86936830030754,232.89104360016063,232.89104360016063,0.025366100016981363,233.89225859986618,235.61010090028867,[0.3784722222222222],[-0.3599537037037037],[1],[0],[0],[2.7401179000735283],['Target'],2,002,2024-10-10_21h18.39.679,Visual Search Task,2024.2.1post4,60.06763619786393,2024-10-10 21h18.59.270698 +0530,
111,0,111,[0.023148148148148147],[0.05324074074074074],[1],[0],[0],[1.4081812002696097],['Target'],111,0,111,0,235.65730250021443,,10,235.635104900226,235.65730250021443,235.65730250021443,0.024872299749404192,236.65940609993413,237.04373440006748,[0.023148148148148147],[0.05324074074074074],[1],[0],[0],[1.4081812002696097],['Target'],2,002,2024-10-10_21h18.39.679,Visual Search Task,2024.2.1post4,60.06763619786393,2024-10-10 21h18.59.270698 +0530,
112,0,112,[0.37037037037037035],[-0.14467592592592593],[1],[0],[0],[1.618244499899447],['Target'],112,0,112,0,237.07410270022228,,5,237.05812449986115,237.07410270022228,237.07410270022228,0.01422929996624589,238.07482900004834,238.67682410031557,[0.37037037037037035],[-0.14467592592592593],[1],[0],[0],[1.618244499899447],['Target'],2,002,2024-10-10_21h18.39.679,Visual Search Task,2024.2.1post4,60.06763619786393,2024-10-10 21h18.59.270698 +0530,
113,0,113,[0.19212962962962962],[-0.38657407407407407],[1],[0],[0],[1.7516221003606915],['Target'],113,0,113,0,238.70687550026923,,5,238.6904783002101,238.70687550026923,238.70687550026923,0.013545999769121408,239.70795379998162,240.44260070007294,[0.19212962962962962],[-0.38657407407407407],[1],[0],[0],[1.7516221003606915],['Target'],2,002,2024-10-10_21h18.39.679,Visual Search Task,2024.2.1post4,60.06763619786393,2024-10-10 21h18.59.270698 +0530,
114,0,114,[0.09375],[-0.125],[1],[0],[0],[0.9038848001509905],['Target'],114,0,114,0,240.47367240022868,,5,240.45490120025352,240.47367240022868,240.47367240022868,0.012240299955010414,,241.3595678000711,[0.09375],[-0.125],[1],[0],[0],[0.9038848001509905],['Target'],2,002,2024-10-10_21h18.39.679,Visual Search Task,2024.2.1post4,60.06763619786393,2024-10-10 21h18.59.270698 +0530,
115,0,115,[-0.1875],[-0.4756944444444444],[1],[0],[0],[1.8524916996248066],['Target'],115,0,115,0,241.3897270001471,,5,241.37255159998313,241.3897270001471,241.3897270001471,0.01288910023868084,242.39105360023677,243.22550710011274,[-0.1875],[-0.4756944444444444],[1],[0],[0],[1.8524916996248066],['Target'],2,002,2024-10-10_21h18.39.679,Visual Search Task,2024.2.1post4,60.06763619786393,2024-10-10 21h18.59.270698 +0530,
116,0,116,[0.37037037037037035],[0.3402777777777778],[1],[0],[0],[2.0413063000887632],['Target'],116,0,116,0,243.2728109001182,,10,243.25038939993829,243.2728109001182,243.2728109001182,0.024769300129264593,244.27458850014955,245.2921810001135,[0.37037037037037035],[0.3402777777777778],[1],[0],[0],[2.0413063000887632],['Target'],2,002,2024-10-10_21h18.39.679,Visual Search Task,2024.2.1post4,60.06763619786393,2024-10-10 21h18.59.270698 +0530,
117,0,117,[0.20833333333333334],[-0.3055555555555556],[1],[0],[0],[1.3577032000757754],['Target'],117,0,117,0,245.33925320021808,,10,245.3168611000292,245.33925320021808,245.33925320021808,0.02454440016299486,246.34078620001674,246.67503460031003,[0.20833333333333334],[-0.3055555555555556],[1],[0],[0],[1.3577032000757754],['Target'],2,002,2024-10-10_21h18.39.679,Visual Search Task,2024.2.1post4,60.06763619786393,2024-10-10 21h18.59.270698 +0530,
118,0,118,[0.22800925925925927],[-0.15625],[1],[0],[0],[1.153142100200057],['Target'],118,0,118,0,246.70612790016457,,5,246.68814569991082,246.70612790016457,246.70612790016457,0.012956100050359964,247.70694230031222,247.8419393002987,[0.22800925925925927],[-0.15625],[1],[0],[0],[1.153142100200057],['Target'],2,002,2024-10-10_21h18.39.679,Visual Search Task,2024.2.1post4,60.06763619786393,2024-10-10 21h18.59.270698 +0530,
119,0,119,[-0.12268518518518519],[-0.0763888888888889],[1],[0],[0],[1.202407100237906],['Target'],119,0,119,0,247.8723108000122,,5,247.85519700031728,247.8723108000122,247.8723108000122,0.013149700127542019,248.87355299992487,249.05812120018527,[-0.12268518518518519],[-0.0763888888888889],[1],[0],[0],[1.202407100237906],['Target'],2,002,2024-10-10_21h18.39.679,Visual Search Task,2024.2.1post4,60.06763619786393,2024-10-10 21h18.59.270698 +0530,
120,0,120,[0.05439814814814815],[0.11805555555555555],[1],[0],[0],[0.8867628998123109],['Target'],120,0,120,0,249.08917509997264,,5,249.07120810030028,249.08917509997264,249.08917509997264,0.012938699685037136,,249.9584854999557,[0.05439814814814815],[0.11805555555555555],[1],[0],[0],[0.8867628998123109],['Target'],2,002,2024-10-10_21h18.39.679,Visual Search Task,2024.2.1post4,60.06763619786393,2024-10-10 21h18.59.270698 +0530,
121,0,121,[-0.04976851851851852],[0.41898148148148145],[1],[0],[0],[1.1524507999420166],['Target'],121,0,121,0,249.98876320011914,,5,249.97163970023394,249.98876320011914,249.98876320011914,0.013051900081336498,250.99041480012238,251.12458739988506,[-0.04976851851851852],[0.41898148148148145],[1],[0],[0],[1.1524507999420166],['Target'],2,002,2024-10-10_21h18.39.679,Visual Search Task,2024.2.1post4,60.06763619786393,2024-10-10 21h18.59.270698 +0530,
122,0,122,[-0.47685185185185186],[-0.09143518518518519],[1],[0],[0],[1.435932899825275],['Target'],122,0,122,0,251.1556625002995,,5,251.13807100011036,251.1556625002995,251.1556625002995,0.013375399634242058,252.15659750020131,252.57446180004627,[-0.47685185185185186],[-0.09143518518518519],[1],[0],[0],[1.435932899825275],['Target'],2,002,2024-10-10_21h18.39.679,Visual Search Task,2024.2.1post4,60.06763619786393,2024-10-10 21h18.59.270698 +0530,
123,0,123,[0.4826388888888889],[0.38310185185185186],[1],[0],[0],[1.8539994000457227],['Target'],123,0,123,0,252.60505470028147,,5,252.586151199881,252.60505470028147,252.60505470028147,0.011620000004768372,253.60615220014006,254.44077369989827,[0.4826388888888889],[0.38310185185185186],[1],[0],[0],[1.8539994000457227],['Target'],2,002,2024-10-10_21h18.39.679,Visual Search Task,2024.2.1post4,60.06763619786393,2024-10-10 21h18.59.270698 +0530,
124,0,124,[-0.4398148148148148],[0.2604166666666667],[1],[0],[0],[1.6749648000113666],['Target'],124,0,124,0,254.48844570014626,,10,254.46548000024632,254.48844570014626,254.48844570014626,0.024600499775260687,255.48989740014076,256.1409787000157,[-0.4398148148148148],[0.2604166666666667],[1],[0],[0],[1.6749648000113666],['Target'],2,002,2024-10-10_21h18.39.679,Visual Search Task,2024.2.1post4,60.06763619786393,2024-10-10 21h18.59.270698 +0530,
125,0,125,[-0.0763888888888889],[0.06365740740740741],[1],[0],[0],[1.3078054999932647],['Target'],125,0,125,0,256.1882742000744,,10,256.16660230001435,256.1882742000744,256.1882742000744,0.025455300230532885,257.189226699993,257.474921700079,[-0.0763888888888889],[0.06365740740740741],[1],[0],[0],[1.3078054999932647],['Target'],2,002,2024-10-10_21h18.39.679,Visual Search Task,2024.2.1post4,60.06763619786393,2024-10-10 21h18.59.270698 +0530,
126,0,126,[-0.3020833333333333],[0.09143518518518519],[1],[0],[0],[1.015048099681735],['Target'],126,0,126,0,257.50466170022264,,5,257.49143829988316,257.50466170022264,257.50466170022264,0.016390500124543905,258.5055257002823,258.5070175002329,[-0.3020833333333333],[0.09143518518518519],[1],[0],[0],[1.015048099681735],['Target'],2,002,2024-10-10_21h18.39.679,Visual Search Task,2024.2.1post4,60.06763619786393,2024-10-10 21h18.59.270698 +0530,
127,0,127,[0.42824074074074076],[-0.024305555555555556],[1],[0],[0],[1.536193000152707],['Target'],127,0,127,0,258.5375334001146,,5,258.52007600013167,258.5375334001146,258.5375334001146,0.012956900056451559,259.5388461998664,260.05680700019,[0.42824074074074076],[-0.024305555555555556],[1],[0],[0],[1.536193000152707],['Target'],2,002,2024-10-10_21h18.39.679,Visual Search Task,2024.2.1post4,60.06763619786393,2024-10-10 21h18.59.270698 +0530,
128,0,128,[0.3506944444444444],[-0.41203703703703703],[1],[0],[0],[2.020349499769509],['Target'],128,0,128,0,260.0877813999541,,5,260.0686168000102,260.0877813999541,260.0877813999541,0.011728700250387192,261.0892799999565,262.08961550006643,[0.3506944444444444],[-0.41203703703703703],[1],[0],[0],[2.020349499769509],['Target'],2,002,2024-10-10_21h18.39.679,Visual Search Task,2024.2.1post4,60.06763619786393,2024-10-10 21h18.59.270698 +0530,
129,0,129,[-0.38310185185185186],[-0.04513888888888889],[1],[0],[0],[1.2360209003090858],['Target'],129,0,129,0,262.1206817999482,,5,262.1029111999087,262.1206817999482,262.1206817999482,0.013193199876695871,263.12186569999903,263.33939650002867,[-0.38310185185185186],[-0.04513888888888889],[1],[0],[0],[1.2360209003090858],['Target'],2,002,2024-10-10_21h18.39.679,Visual Search Task,2024.2.1post4,60.06763619786393,2024-10-10 21h18.59.270698 +0530,
130,0,130,[0.3900462962962963],[-0.3414351851851852],[1],[0],[0],[2.4411442996934056],['Target'],130,0,130,0,263.3871662998572,,10,263.36473880009726,263.3871662998572,263.3871662998572,0.025235900189727545,264.388543299865,265.8063985998742,[0.3900462962962963],[-0.3414351851851852],[1],[0],[0],[2.4411442996934056],['Target'],2,002,2024-10-10_21h18.39.679,Visual Search Task,2024.2.1post4,60.06763619786393,2024-10-10 21h18.59.270698 +0530,
131,0,131,[0.22337962962962962],[-0.32523148148148145],[1],[0],[0],[1.5570725998841226],['Target'],131,0,131,0,265.85334300016984,,10,265.8319405000657,265.85334300016984,265.85334300016984,0.02541199978441,266.8546184999868,267.38951099989936,[0.22337962962962962],[-0.32523148148148145],[1],[0],[0],[1.5570725998841226],['Target'],2,002,2024-10-10_21h18.39.679,Visual Search Task,2024.2.1post4,60.06763619786393,2024-10-10 21h18.59.270698 +0530,
132,0,132,[0.39699074074074076],[0.29282407407407407],[1],[0],[0],[2.085763600189239],['Target'],132,0,132,0,267.41977490019053,,5,267.4024903001264,267.41977490019053,267.41977490019053,0.012845700141042471,268.4210550999269,269.4887286000885,[0.39699074074074076],[0.29282407407407407],[1],[0],[0],[2.085763600189239],['Target'],2,002,2024-10-10_21h18.39.679,Visual Search Task,2024.2.1post4,60.06763619786393,2024-10-10 21h18.59.270698 +0530,
133,0,133,[0.018518518518518517],[0.046296296296296294],[1],[0],[0],[1.0357781001366675],['Target'],133,0,133,0,269.519792499952,,5,269.502084299922,269.519792499952,269.519792499952,0.013282699976116419,270.52123499987647,270.5384086999111,[0.018518518518518517],[0.046296296296296294],[1],[0],[0],[1.0357781001366675],['Target'],2,002,2024-10-10_21h18.39.679,Visual Search Task,2024.2.1post4,60.06763619786393,2024-10-10 21h18.59.270698 +0530,
134,0,134,[-0.45023148148148145],[-0.25578703703703703],[1],[0],[0],[1.4719740999862552],['Target'],134,0,134,0,270.56978709995747,,5,270.55008780024946,270.56978709995747,270.56978709995747,0.011590300127863884,271.5709588001482,272.0225633000955,[-0.45023148148148145],[-0.25578703703703703],[1],[0],[0],[1.4719740999862552],['Target'],2,002,2024-10-10_21h18.39.679,Visual Search Task,2024.2.1post4,60.06763619786393,2024-10-10 21h18.59.270698 +0530,
135,0,135,[0.09722222222222222],[0.3726851851851852],[1],[0],[0],[1.2352473996579647],['Target'],135,0,135,0,272.0526670999825,,5,272.03626629989594,272.0526670999825,272.0526670999825,0.0135194999165833,273.0541579001583,273.2719852998853,[0.09722222222222222],[0.3726851851851852],[1],[0],[0],[1.2352473996579647],['Target'],2,002,2024-10-10_21h18.39.679,Visual Search Task,2024.2.1post4,60.06763619786393,2024-10-10 21h18.59.270698 +0530,
136,0,136,[0.13078703703703703],[0.23726851851851852],[1],[0],[0],[1.4574060998857021],['Target'],136,0,136,0,273.31890940014273,,10,273.2968017999083,273.31890940014273,273.31890940014273,0.02470869990065694,274.3205609000288,274.75463580014184,[0.13078703703703703],[0.23726851851851852],[1],[0],[0],[1.4574060998857021],['Target'],2,002,2024-10-10_21h18.39.679,Visual Search Task,2024.2.1post4,60.06763619786393,2024-10-10 21h18.59.270698 +0530,
137,0,137,[-0.1087962962962963],[0.1736111111111111],[1],[0],[0],[1.2910601999610662],['Target'],137,0,137,0,274.8020923999138,,10,274.780277099926,274.8020923999138,274.8020923999138,0.025503000244498253,275.8039549002424,276.07182390009984,[-0.1087962962962963],[0.1736111111111111],[1],[0],[0],[1.2910601999610662],['Target'],2,002,2024-10-10_21h18.39.679,Visual Search Task,2024.2.1post4,60.06763619786393,2024-10-10 21h18.59.270698 +0530,
138,0,138,[0.21412037037037038],[0.09606481481481481],[1],[0],[0],[1.0758630000054836],['Target'],138,0,138,0,276.1189808999188,,10,276.09656460024416,276.1189808999188,276.1189808999188,0.024608099833130836,277.1196643002331,277.1729061002843,[0.21412037037037038],[0.09606481481481481],[1],[0],[0],[1.0758630000054836],['Target'],2,002,2024-10-10_21h18.39.679,Visual Search Task,2024.2.1post4,60.06763619786393,2024-10-10 21h18.59.270698 +0530,
139,0,139,[0.02546296296296296],[0.2650462962962963],[1],[0],[0],[1.0064290002919734],['Target'],139,0,139,0,277.218296200037,,10,277.1976495999843,277.218296200037,277.218296200037,0.02460830006748438,278.2516052001156,278.20452739996836,[0.02546296296296296],[0.2650462962962963],[1],[0],[0],[1.0064290002919734],['Target'],2,002,2024-10-10_21h18.39.679,Visual Search Task,2024.2.1post4,60.06763619786393,2024-10-10 21h18.59.270698 +0530,
140,0,140,[-0.08449074074074074],[-0.14351851851851852],[1],[0],[0],[1.1437939000315964],['Target'],140,0,140,0,278.2516052001156,,10,278.22868550010026,278.2516052001156,278.2516052001156,0.024015100207179785,279.2531600003131,279.372943200171,[-0.08449074074074074],[-0.14351851851851852],[1],[0],[0],[1.1437939000315964],['Target'],2,002,2024-10-10_21h18.39.679,Visual Search Task,2024.2.1post4,60.06763619786393,2024-10-10 21h18.59.270698 +0530,
141,0,141,[-0.38310185185185186],[0.48726851851851855],[1],[0],[0],[2.2392112999223173],['Target'],141,0,141,0,279.4182782000862,,10,279.39809919986874,279.4182782000862,279.4182782000862,0.025020400062203407,280.4199212999083,281.6378661999479,[-0.38310185185185186],[0.48726851851851855],[1],[0],[0],[2.2392112999223173],['Target'],2,002,2024-10-10_21h18.39.679,Visual Search Task,2024.2.1post4,60.06763619786393,2024-10-10 21h18.59.270698 +0530,
142,0,142,[0.4837962962962963],[-0.29398148148148145],[1],[0],[0],[2.056618200149387],['Target'],142,0,142,0,281.68500680010766,,10,281.6633357000537,281.68500680010766,281.68500680010766,0.025333099998533726,282.6859961003065,283.72047490021214,[0.4837962962962963],[-0.29398148148148145],[1],[0],[0],[2.056618200149387],['Target'],2,002,2024-10-10_21h18.39.679,Visual Search Task,2024.2.1post4,60.06763619786393,2024-10-10 21h18.59.270698 +0530,
143,0,143,[-0.42476851851851855],[0.21180555555555555],[1],[0],[0],[2.8735490003600717],['Target'],143,0,143,0,283.76805939991027,,10,283.7464410001412,283.76805939991027,283.76805939991027,0.025834400206804276,284.76954020000994,286.6204609000124,[-0.42476851851851855],[0.21180555555555555],[1],[0],[0],[2.8735490003600717],['Target'],2,002,2024-10-10_21h18.39.679,Visual Search Task,2024.2.1post4,60.06763619786393,2024-10-10 21h18.59.270698 +0530,
144,0,144,[0.023148148148148147],[0.44212962962962965],[1],[0],[0],[2.057361400220543],['Target'],144,0,144,0,286.66753219999373,,10,286.64491360029206,286.66753219999373,286.66753219999373,0.024322799872606993,287.66856850031763,288.70282800029963,[0.023148148148148147],[0.44212962962962965],[1],[0],[0],[2.057361400220543],['Target'],2,002,2024-10-10_21h18.39.679,Visual Search Task,2024.2.1post4,60.06763619786393,2024-10-10 21h18.59.270698 +0530,
145,0,145,[-0.11921296296296297],[0.23032407407407407],[1],[0],[0],[2.4419180997647345],['Target'],145,0,145,0,288.75040449993685,,10,288.72770539997146,288.75040449993685,288.75040449993685,0.024746099952608347,289.7515072003007,291.1700838999823,[-0.11921296296296297],[0.23032407407407407],[1],[0],[0],[2.4419180997647345],['Target'],2,002,2024-10-10_21h18.39.679,Visual Search Task,2024.2.1post4,60.06763619786393,2024-10-10 21h18.59.270698 +0530,
146,0,146,[0.3402777777777778],[-0.2650462962962963],[1],[0],[0],[2.0029885000549257],['Target'],146,0,146,0,291.20073790010065,,5,291.18330539995804,291.20073790010065,291.20073790010065,0.013090500142425299,292.20153950015083,293.1867688000202,[0.3402777777777778],[-0.2650462962962963],[1],[0],[0],[2.0029885000549257],['Target'],2,002,2024-10-10_21h18.39.679,Visual Search Task,2024.2.1post4,60.06763619786393,2024-10-10 21h18.59.270698 +0530,
147,0,147,[0.37962962962962965],[0.4166666666666667],[1],[0],[0],[1.5734792998991907],['Target'],147,0,147,0,293.2330314000137,,10,293.2124071000144,293.2330314000137,293.2330314000137,0.025543699972331524,294.234713899903,294.78635529987514,[0.37962962962962965],[0.4166666666666667],[1],[0],[0],[1.5734792998991907],['Target'],2,002,2024-10-10_21h18.39.679,Visual Search Task,2024.2.1post4,60.06763619786393,2024-10-10 21h18.59.270698 +0530,
148,0,148,[0.29398148148148145],[0.32060185185185186],[1],[0],[0],[1.8401183998212218],['Target'],148,0,148,0,294.8331627002917,,10,294.8116530999541,294.8331627002917,294.8331627002917,0.0251670996658504,295.8341943998821,296.6522329002619,[0.29398148148148145],[0.32060185185185186],[1],[0],[0],[1.8401183998212218],['Target'],2,002,2024-10-10_21h18.39.679,Visual Search Task,2024.2.1post4,60.06763619786393,2024-10-10 21h18.59.270698 +0530,
149,0,149,[0.2916666666666667],[-0.14467592592592593],[1],[0],[0],[1.8408071999438107],['Target'],149,0,149,0,296.6996359000914,,10,296.67720750020817,296.6996359000914,296.6996359000914,0.02483760006725788,297.7009764001705,298.5184936001897,[0.2916666666666667],[-0.14467592592592593],[1],[0],[0],[1.8408071999438107],['Target'],2,002,2024-10-10_21h18.39.679,Visual Search Task,2024.2.1post4,60.06763619786393,2024-10-10 21h18.59.270698 +0530,
150,0,150,[0.09143518518518519],[-0.40162037037037035],[1],[0],[0],[2.84115120023489],['Target'],150,0,150,0,298.56612830003724,,10,298.54339809995145,298.56612830003724,298.56612830003724,0.02476800000295043,299.5679361000657,301.38503490015864,[0.09143518518518519],[-0.40162037037037035],[1],[0],[0],[2.84115120023489],['Target'],2,002,2024-10-10_21h18.39.679,Visual Search Task,2024.2.1post4,60.06763619786393,2024-10-10 21h18.59.270698 +0530,
151,0,151,[0.4212962962962963],[-0.4386574074074074],[1],[0],[0],[1.669425199739635],['Target'],151,0,151,0,301.415882000234,,5,301.39816780015826,301.415882000234,301.415882000234,0.012984500266611576,302.4167325999588,303.068110300228,[0.4212962962962963],[-0.4386574074074074],[1],[0],[0],[1.669425199739635],['Target'],2,002,2024-10-10_21h18.39.679,Visual Search Task,2024.2.1post4,60.06763619786393,2024-10-10 21h18.59.270698 +0530,
152,0,152,[-0.46412037037037035],[0.16319444444444445],[1],[0],[0],[2.5192658002488315],['Target'],152,0,152,0,303.0988102001138,,5,303.0809697001241,303.0988102001138,303.0988102001138,0.01274449983611703,304.09968100022525,305.6007121000439,[-0.46412037037037035],[0.16319444444444445],[1],[0],[0],[2.5192658002488315],['Target'],2,002,2024-10-10_21h18.39.679,Visual Search Task,2024.2.1post4,60.06763619786393,2024-10-10 21h18.59.270698 +0530,
153,0,153,[0.25],[-0.1886574074074074],[1],[0],[0],[1.391923500224948],['Target'],153,0,153,0,305.6485049999319,,10,305.62518039997667,305.6485049999319,305.6485049999319,0.0243625002913177,306.65001460025087,307.0175792998634,[0.25],[-0.1886574074074074],[1],[0],[0],[1.391923500224948],['Target'],2,002,2024-10-10_21h18.39.679,Visual Search Task,2024.2.1post4,60.06763619786393,2024-10-10 21h18.59.270698 +0530,
154,0,154,[-0.06018518518518518],[-0.41087962962962965],[1],[0],[0],[1.2363694999366999],['Target'],154,0,154,0,307.0486322999932,,5,307.0318881003186,307.0486322999932,307.0486322999932,0.014161999803036451,308.0491809002124,308.2687169001438,[-0.06018518518518518],[-0.41087962962962965],[1],[0],[0],[1.2363694999366999],['Target'],2,002,2024-10-10_21h18.39.679,Visual Search Task,2024.2.1post4,60.06763619786393,2024-10-10 21h18.59.270698 +0530,
155,0,155,[-0.4039351851851852],[-0.1550925925925926],[1],[0],[0],[1.173257099930197],['Target'],155,0,155,0,308.3148642000742,,10,308.2932718000375,308.3148642000742,308.3148642000742,0.02444930002093315,309.31617260025814,309.4669971000403,[-0.4039351851851852],[-0.1550925925925926],[1],[0],[0],[1.173257099930197],['Target'],2,002,2024-10-10_21h18.39.679,Visual Search Task,2024.2.1post4,60.06763619786393,2024-10-10 21h18.59.270698 +0530,
156,0,156,[-0.2951388888888889],[-0.16435185185185186],[1],[0],[0],[0.8206961001269519],['Target'],156,0,156,0,309.497912700288,,5,309.4792642001994,309.497912700288,309.497912700288,0.012192000169306993,,310.3006660998799,[-0.2951388888888889],[-0.16435185185185186],[1],[0],[0],[0.8206961001269519],['Target'],2,002,2024-10-10_21h18.39.679,Visual Search Task,2024.2.1post4,60.06763619786393,2024-10-10 21h18.59.270698 +0530,
157,0,157,[0.33449074074074076],[-0.034722222222222224],[1],[0],[0],[1.7027618000283837],['Target'],157,0,157,0,310.33119649998844,,5,310.3137032999657,310.33119649998844,310.33119649998844,0.012928000185638666,311.33275840012357,312.01696490030736,[0.33449074074074076],[-0.034722222222222224],[1],[0],[0],[1.7027618000283837],['Target'],2,002,2024-10-10_21h18.39.679,Visual Search Task,2024.2.1post4,60.06763619786393,2024-10-10 21h18.59.270698 +0530,
158,0,158,[0.052083333333333336],[-0.2604166666666667],[0],[0],[1],[1.7574561000801623],['Target'],158,0,158,0,312.06465720012784,,10,312.04177420027554,312.06465720012784,312.06465720012784,0.02473110007122159,313.0658136000857,313.79971669986844,[0.052083333333333336],[-0.2604166666666667],[0],[0],[1],[1.7574561000801623],['Target'],2,002,2024-10-10_21h18.39.679,Visual Search Task,2024.2.1post4,60.06763619786393,2024-10-10 21h18.59.270698 +0530,
159,0,159,[-0.3425925925925926],[0.3611111111111111],[1],[0],[0],[2.1270205001346767],['Target'],159,0,159,0,313.8471198002808,,10,313.8243762999773,313.8471198002808,313.8471198002808,0.024527600035071373,314.84862590022385,315.95224940031767,[-0.3425925925925926],[0.3611111111111111],[1],[0],[0],[2.1270205001346767],['Target'],2,002,2024-10-10_21h18.39.679,Visual Search Task,2024.2.1post4,60.06763619786393,2024-10-10 21h18.59.270698 +0530,
160,0,160,[-0.2974537037037037],[0.11689814814814815],[1],[0],[0],[1.260390100069344],['Target'],160,0,160,0,315.9969357000664,,5,315.97247810009867,315.9969357000664,315.9969357000664,0.01982400007545948,316.99872749997303,317.23339609988034,[-0.2974537037037037],[0.11689814814814815],[1],[0],[0],[1.260390100069344],['Target'],2,002,2024-10-10_21h18.39.679,Visual Search Task,2024.2.1post4,60.06763619786393,2024-10-10 21h18.59.270698 +0530,
161,0,161,[-0.4988425925925926],[-0.44212962962962965],[1],[0],[0],[3.5738440002314746],['Target'],161,0,161,0,317.2802299000323,,10,317.2579540000297,317.2802299000323,317.2802299000323,0.024452199693769217,318.2813516999595,320.8323156000115,[-0.4988425925925926],[-0.44212962962962965],[1],[0],[0],[3.5738440002314746],['Target'],2,002,2024-10-10_21h18.39.679,Visual Search Task,2024.2.1post4,60.06763619786393,2024-10-10 21h18.59.270698 +0530,
162,0,162,[0.3680555555555556],[-0.18055555555555555],[1],[0],[0],[1.524020400363952],['Target'],162,0,162,0,320.8799497000873,,10,320.85769829992205,320.8799497000873,320.8799497000873,0.025228299666196108,321.88125149998814,322.3822514000349,[0.3680555555555556],[-0.18055555555555555],[1],[0],[0],[1.524020400363952],['Target'],2,002,2024-10-10_21h18.39.679,Visual Search Task,2024.2.1post4,60.06763619786393,2024-10-10 21h18.59.270698 +0530,
163,0,163,[0.2789351851851852],[-0.4039351851851852],[1],[0],[0],[2.5915924003347754],['Target'],163,0,163,0,322.42929799994454,,10,322.4065052000806,322.42929799994454,322.42929799994454,0.02412329986691475,323.4309036000632,324.99856840027496,[0.2789351851851852],[-0.4039351851851852],[1],[0],[0],[2.5915924003347754],['Target'],2,002,2024-10-10_21h18.39.679,Visual Search Task,2024.2.1post4,60.06763619786393,2024-10-10 21h18.59.270698 +0530,
164,0,164,[-0.07523148148148148],[0.3611111111111111],[1],[0],[0],[1.4197666002437472],['Target'],164,0,164,0,325.0292385001667,,5,325.0117339999415,325.0292385001667,325.0292385001667,0.01301989983767271,326.0302050001919,326.4319807002321,[-0.07523148148148148],[0.3611111111111111],[1],[0],[0],[1.4197666002437472],['Target'],2,002,2024-10-10_21h18.39.679,Visual Search Task,2024.2.1post4,60.06763619786393,2024-10-10 21h18.59.270698 +0530,
165,0,165,[-0.37037037037037035],[-0.37962962962962965],[1],[0],[0],[1.785447800066322],['Target'],165,0,165,0,326.46255129994825,,5,326.4452432002872,326.46255129994825,326.46255129994825,0.013157899957150221,327.463849700056,328.2311746003106,[-0.37037037037037035],[-0.37962962962962965],[1],[0],[0],[1.785447800066322],['Target'],2,002,2024-10-10_21h18.39.679,Visual Search Task,2024.2.1post4,60.06763619786393,2024-10-10 21h18.59.270698 +0530,
166,0,166,[-0.15856481481481483],[0.41550925925925924],[1],[0],[0],[1.3864962998777628],['Target'],166,0,166,0,328.2623165999539,,5,328.24349400028586,328.2623165999539,328.2623165999539,0.012279400136321783,329.2634829999879,329.63082739990205,[-0.15856481481481483],[0.41550925925925924],[1],[0],[0],[1.3864962998777628],['Target'],2,002,2024-10-10_21h18.39.679,Visual Search Task,2024.2.1post4,60.06763619786393,2024-10-10 21h18.59.270698 +0530,
167,0,167,[-0.36689814814814814],[0.4398148148148148],[1],[0],[0],[1.2589337001554668],['Target'],167,0,167,0,329.67866019997746,,10,329.6550230002031,329.67866019997746,329.67866019997746,0.024089499842375517,330.67968330020085,330.9145005000755,[-0.36689814814814814],[0.4398148148148148],[1],[0],[0],[1.2589337001554668],['Target'],2,002,2024-10-10_21h18.39.679,Visual Search Task,2024.2.1post4,60.06763619786393,2024-10-10 21h18.59.270698 +0530,
168,0,168,[-0.39351851851851855],[0.34837962962962965],[1],[0],[0],[1.2081173998303711],['Target'],168,0,168,0,330.9618863998912,,10,330.9392683003098,330.9618863998912,330.9618863998912,0.024623199831694365,331.9635792002082,332.1478293999098,[-0.39351851851851855],[0.34837962962962965],[1],[0],[0],[1.2081173998303711],['Target'],2,002,2024-10-10_21h18.39.679,Visual Search Task,2024.2.1post4,60.06763619786393,2024-10-10 21h18.59.270698 +0530,
169,0,169,[-0.10416666666666667],[-0.2511574074074074],[0],[0],[1],[2.1412219000048935],['Target'],169,0,169,0,332.1951590999961,,10,332.17232230026275,332.1951590999961,332.1951590999961,0.024356199894100428,333.19621689990163,334.31404320010915,[-0.10416666666666667],[-0.2511574074074074],[0],[0],[1],[2.1412219000048935],['Target'],2,002,2024-10-10_21h18.39.679,Visual Search Task,2024.2.1post4,60.06763619786393,2024-10-10 21h18.59.270698 +0530,
170,0,170,[0.04513888888888889],[0.16666666666666666],[1],[0],[0],[6.2362581002525985],['Target'],170,0,170,0,334.345002300106,,5,334.3268075999804,334.345002300106,334.345002300106,0.012723099905997515,335.34603320015594,340.56370200030506,[0.04513888888888889],[0.16666666666666666],[1],[0],[0],[6.2362581002525985],['Target'],2,002,2024-10-10_21h18.39.679,Visual Search Task,2024.2.1post4,60.06763619786393,2024-10-10 21h18.59.270698 +0530,
171,0,171,[0.2175925925925926],[0.3645833333333333],[1],[0],[0],[1.954834199976176],['Target'],171,0,171,0,340.61041259998456,,10,340.59199530025944,340.61041259998456,340.61041259998456,0.028186199720948935,341.6120032998733,342.5473688999191,[0.2175925925925926],[0.3645833333333333],[1],[0],[0],[1.954834199976176],['Target'],2,002,2024-10-10_21h18.39.679,Visual Search Task,2024.2.1post4,60.06763619786393,2024-10-10 21h18.59.270698 +0530,
172,0,172,[0.024305555555555556],[0.41203703703703703],[1],[0],[0],[3.156973899807781],['Target'],172,0,172,0,342.59423140017316,,10,342.5720764002763,342.59423140017316,342.59423140017316,0.024590299930423498,343.5948288002983,345.729552899953,[0.024305555555555556],[0.41203703703703703],[1],[0],[0],[3.156973899807781],['Target'],2,002,2024-10-10_21h18.39.679,Visual Search Task,2024.2.1post4,60.06763619786393,2024-10-10 21h18.59.270698 +0530,
173,0,173,[-0.12731481481481483],[0.3333333333333333],[1],[0],[0],[3.106800699606538],['Target'],173,0,173,0,345.7766685001552,,10,345.7551009999588,345.7766685001552,345.7766685001552,0.025418200064450502,346.77786569995806,348.86240920005366,[-0.12731481481481483],[0.3333333333333333],[1],[0],[0],[3.106800699606538],['Target'],2,002,2024-10-10_21h18.39.679,Visual Search Task,2024.2.1post4,60.06763619786393,2024-10-10 21h18.59.270698 +0530,
174,0,174,[0.27199074074074076],[-0.2962962962962963],[1],[0],[0],[1.7355054998770356],['Target'],174,0,174,0,348.89306910010055,,5,348.87586720008403,348.89306910010055,348.89306910010055,0.013326200190931559,349.8943264000118,350.61188040021807,[0.27199074074074076],[-0.2962962962962963],[1],[0],[0],[1.7355054998770356],['Target'],2,002,2024-10-10_21h18.39.679,Visual Search Task,2024.2.1post4,60.06763619786393,2024-10-10 21h18.59.270698 +0530,
175,0,175,[0.0],[-0.35185185185185186],[1],[0],[0],[0.9889307003468275],['Target'],175,0,175,0,350.64295500004664,,5,350.62362190010026,350.64295500004664,350.64295500004664,0.011625399813055992,,351.61314090015367,[0.0],[-0.35185185185185186],[1],[0],[0],[0.9889307003468275],['Target'],2,002,2024-10-10_21h18.39.679,Visual Search Task,2024.2.1post4,60.06763619786393,2024-10-10 21h18.59.270698 +0530,
176,0,176,[-0.4675925925925926],[0.03935185185185185],[1],[0],[0],[2.30587359983474],['Target'],176,0,176,0,351.658967200201,,10,351.63846029993147,351.658967200201,351.658967200201,0.025215699803084135,352.66093489993364,353.94481329992414,[-0.4675925925925926],[0.03935185185185185],[1],[0],[0],[2.30587359983474],['Target'],2,002,2024-10-10_21h18.39.679,Visual Search Task,2024.2.1post4,60.06763619786393,2024-10-10 21h18.59.270698 +0530,
177,0,177,[-0.1087962962962963],[-0.17476851851851852],[1],[0],[0],[1.6915657999925315],['Target'],177,0,177,0,353.9923311001621,,10,353.96921020001173,353.9923311001621,353.9923311001621,0.024259000085294247,354.99321090010926,355.66123289987445,[-0.1087962962962963],[-0.17476851851851852],[1],[0],[0],[1.6915657999925315],['Target'],2,002,2024-10-10_21h18.39.679,Visual Search Task,2024.2.1post4,60.06763619786393,2024-10-10 21h18.59.270698 +0530,
178,0,178,[0.19675925925925927],[0.09143518518518519],[1],[0],[0],[1.7917264997959137],['Target'],178,0,178,0,355.7091128001921,,10,355.6859686002135,355.7091128001921,355.7091128001921,0.02460460038855672,356.7102316999808,357.47810880001634,[0.19675925925925927],[0.09143518518518519],[1],[0],[0],[1.7917264997959137],['Target'],2,002,2024-10-10_21h18.39.679,Visual Search Task,2024.2.1post4,60.06763619786393,2024-10-10 21h18.59.270698 +0530,
179,0,179,[0.02199074074074074],[-0.027777777777777776],[1],[0],[0],[1.17436459986493],['Target'],179,0,179,0,357.52535440027714,,10,357.5032060001977,357.52535440027714,357.52535440027714,0.024958800058811903,358.5262474999763,358.67806649999693,[0.02199074074074074],[-0.027777777777777776],[1],[0],[0],[1.17436459986493],['Target'],2,002,2024-10-10_21h18.39.679,Visual Search Task,2024.2.1post4,60.06763619786393,2024-10-10 21h18.59.270698 +0530,
180,0,180,[0.4444444444444444],[0.2511574074074074],[1],[0],[0],[1.2576514002867043],['Target'],180,0,180,0,358.7251253002323,,10,358.7030568001792,358.7251253002323,358.7251253002323,0.024853500071913004,359.72637009993196,359.9611956998706,[0.4444444444444444],[0.2511574074074074],[1],[0],[0],[1.2576514002867043],['Target'],2,002,2024-10-10_21h18.39.679,Visual Search Task,2024.2.1post4,60.06763619786393,2024-10-10 21h18.59.270698 +0530,
181,0,181,[0.4479166666666667],[0.35185185185185186],[1],[0],[0],[1.6594811002723873],['Target'],181,0,181,0,360.008632699959,,10,359.98564339987934,360.008632699959,360.008632699959,0.024311400018632412,361.00950910011306,361.64557809988037,[0.4479166666666667],[0.35185185185185186],[1],[0],[0],[1.6594811002723873],['Target'],2,002,2024-10-10_21h18.39.679,Visual Search Task,2024.2.1post4,60.06763619786393,2024-10-10 21h18.59.270698 +0530,
182,0,182,[0.037037037037037035],[0.2881944444444444],[1],[0],[0],[0.9351038001477718],['Target'],182,0,182,0,361.67482470022514,,5,361.65867999987677,361.67482470022514,361.67482470022514,0.012952100019901991,,362.59431010019034,[0.037037037037037035],[0.2881944444444444],[1],[0],[0],[0.9351038001477718],['Target'],2,002,2024-10-10_21h18.39.679,Visual Search Task,2024.2.1post4,60.06763619786393,2024-10-10 21h18.59.270698 +0530,
183,0,183,[0.1724537037037037],[0.13194444444444445],[1],[0],[0],[0.9927576999180019],['Target'],183,0,183,0,362.6411482002586,,10,362.61870560003445,362.6411482002586,362.6411482002586,0.024287499953061342,,363.61209410009906,[0.1724537037037037],[0.13194444444444445],[1],[0],[0],[0.9927576999180019],['Target'],2,002,2024-10-10_21h18.39.679,Visual Search Task,2024.2.1post4,60.06763619786393,2024-10-10 21h18.59.270698 +0530,
184,0,184,[0.47685185185185186],[-0.32407407407407407],[1],[0],[0],[2.509840200189501],['Target'],184,0,184,0,363.6742914998904,,10,363.65018999995664,363.6742914998904,363.6742914998904,0.037877699825912714,364.6754232002422,366.16055570030585,[0.47685185185185186],[-0.32407407407407407],[1],[0],[0],[2.509840200189501],['Target'],2,002,2024-10-10_21h18.39.679,Visual Search Task,2024.2.1post4,60.06763619786393,2024-10-10 21h18.59.270698 +0530,
185,0,185,[-0.3958333333333333],[-0.2326388888888889],[1],[0],[0],[1.3523411001078784],['Target'],185,0,185,0,366.1909574000165,,5,366.17424299987033,366.1909574000165,366.1909574000165,0.013552200049161911,367.1920014000498,367.527073699981,[-0.3958333333333333],[-0.2326388888888889],[1],[0],[0],[1.3523411001078784],['Target'],2,002,2024-10-10_21h18.39.679,Visual Search Task,2024.2.1post4,60.06763619786393,2024-10-10 21h18.59.270698 +0530,
186,0,186,[0.0011574074074074073],[-0.4652777777777778],[1],[0],[0],[1.4425935996696353],['Target'],186,0,186,0,367.5738061000593,,10,367.55142639996484,367.5738061000593,367.5738061000593,0.02423920016735792,368.5750414002687,368.9945251001045,[0.0011574074074074073],[-0.4652777777777778],[1],[0],[0],[1.4425935996696353],['Target'],2,002,2024-10-10_21h18.39.679,Visual Search Task,2024.2.1post4,60.06763619786393,2024-10-10 21h18.59.270698 +0530,
187,0,187,[0.14930555555555555],[-0.42824074074074076],[1],[0],[0],[1.1343920999206603],['Target'],187,0,187,0,369.0238169999793,,5,369.00791490031406,369.0238169999793,369.0238169999793,0.01324799982830882,370.02464860025793,370.1427608001977,[0.14930555555555555],[-0.42824074074074076],[1],[0],[0],[1.1343920999206603],['Target'],2,002,2024-10-10_21h18.39.679,Visual Search Task,2024.2.1post4,60.06763619786393,2024-10-10 21h18.59.270698 +0530,
188,0,188,[-0.4085648148148148],[-0.0787037037037037],[1],[0],[0],[2.0032556001096964],['Target'],188,0,188,0,370.17354270024225,,5,370.1555034001358,370.17354270024225,370.17354270024225,0.012638899963349104,371.1747063002549,372.159564900212,[-0.4085648148148148],[-0.0787037037037037],[1],[0],[0],[2.0032556001096964],['Target'],2,002,2024-10-10_21h18.39.679,Visual Search Task,2024.2.1post4,60.06763619786393,2024-10-10 21h18.59.270698 +0530,
189,0,189,[-0.4444444444444444],[-0.24421296296296297],[1],[0],[0],[1.2242889003828168],['Target'],189,0,189,0,372.2065909001976,,10,372.18427579989657,372.2065909001976,372.2065909001976,0.024607500061392784,373.20774970017374,373.40904400032014,[-0.4444444444444444],[-0.24421296296296297],[1],[0],[0],[1.2242889003828168],['Target'],2,002,2024-10-10_21h18.39.679,Visual Search Task,2024.2.1post4,60.06763619786393,2024-10-10 21h18.59.270698 +0530,
190,0,190,[0.18287037037037038],[0.30092592592592593],[1],[0],[0],[1.403358899988234],['Target'],190,0,190,0,373.44000540021807,,5,373.42213190020993,373.44000540021807,373.44000540021807,0.012942499946802855,374.44099090015516,374.82598920026794,[0.18287037037037038],[0.30092592592592593],[1],[0],[0],[1.403358899988234],['Target'],2,002,2024-10-10_21h18.39.679,Visual Search Task,2024.2.1post4,60.06763619786393,2024-10-10 21h18.59.270698 +0530,
191,0,191,[0.3472222222222222],[0.1863425925925926],[1],[0],[0],[2.2245767996646464],['Target'],191,0,191,0,374.8733307002112,,10,374.85064940014854,374.8733307002112,374.8733307002112,0.024554899893701077,375.87407780019566,377.07572970027104,[0.3472222222222222],[0.1863425925925926],[1],[0],[0],[2.2245767996646464],['Target'],2,002,2024-10-10_21h18.39.679,Visual Search Task,2024.2.1post4,60.06763619786393,2024-10-10 21h18.59.270698 +0530,
192,0,192,[0.2650462962962963],[-0.125],[1],[0],[0],[2.5733696003444493],['Target'],192,0,192,0,377.1226496002637,,10,377.1013076999225,377.1226496002637,377.1226496002637,0.02544949995353818,378.1244466002099,379.67516230000183,[0.2650462962962963],[-0.125],[1],[0],[0],[2.5733696003444493],['Target'],2,002,2024-10-10_21h18.39.679,Visual Search Task,2024.2.1post4,60.06763619786393,2024-10-10 21h18.59.270698 +0530,
193,0,193,[0.2037037037037037],[0.29398148148148145],[1],[0],[0],[1.7031680000945926],['Target'],193,0,193,0,379.705769199878,,5,379.68752760021016,379.705769199878,379.705769199878,0.01232309965416789,380.7071332000196,381.3914717999287,[0.2037037037037037],[0.29398148148148145],[1],[0],[0],[1.7031680000945926],['Target'],2,002,2024-10-10_21h18.39.679,Visual Search Task,2024.2.1post4,60.06763619786393,2024-10-10 21h18.59.270698 +0530,
194,0,194,[-0.041666666666666664],[0.34953703703703703],[1],[0],[0],[1.388035099953413],['Target'],194,0,194,0,381.422432300169,,5,381.4028978003189,381.422432300169,381.422432300169,0.011334500275552273,382.4234223999083,382.79146580025554,[-0.041666666666666664],[0.34953703703703703],[1],[0],[0],[1.388035099953413],['Target'],2,002,2024-10-10_21h18.39.679,Visual Search Task,2024.2.1post4,60.06763619786393,2024-10-10 21h18.59.270698 +0530,
195,0,195,[-0.25462962962962965],[0.36921296296296297],[1],[0],[0],[2.1911744996905327],['Target'],195,0,195,0,382.83907420001924,,10,382.8162299999967,382.83907420001924,382.83907420001924,0.024655799847096205,383.8399451998994,385.0079407002777,[-0.25462962962962965],[0.36921296296296297],[1],[0],[0],[2.1911744996905327],['Target'],2,002,2024-10-10_21h18.39.679,Visual Search Task,2024.2.1post4,60.06763619786393,2024-10-10 21h18.59.270698 +0530,
196,0,196,[0.19907407407407407],[0.20023148148148148],[1],[0],[0],[1.369630599860102],['Target'],196,0,196,0,385.03806940000504,,5,385.02077670022845,385.03806940000504,385.03806940000504,0.012713400181382895,386.0394741999917,386.390913200099,[0.19907407407407407],[0.20023148148148148],[1],[0],[0],[1.369630599860102],['Target'],2,002,2024-10-10_21h18.39.679,Visual Search Task,2024.2.1post4,60.06763619786393,2024-10-10 21h18.59.270698 +0530,
197,0,197,[-0.4398148148148148],[0.024305555555555556],[1],[0],[0],[1.7699877000413835],['Target'],197,0,197,0,386.42170630022883,,5,386.40292940009385,386.42170630022883,386.42170630022883,0.012003299780189991,387.4229953000322,388.1737700002268,[-0.4398148148148148],[0.024305555555555556],[1],[0],[0],[1.7699877000413835],['Target'],2,002,2024-10-10_21h18.39.679,Visual Search Task,2024.2.1post4,60.06763619786393,2024-10-10 21h18.59.270698 +0530,
198,0,198,[-0.10300925925925926],[-0.2777777777777778],[1],[0],[0],[1.936713700182736],['Target'],198,0,198,0,388.20470530027524,,5,388.1858919998631,388.20470530027524,388.20470530027524,0.012048100121319294,389.2057161000557,390.1234074002132,[-0.10300925925925926],[-0.2777777777777778],[1],[0],[0],[1.936713700182736],['Target'],2,002,2024-10-10_21h18.39.679,Visual Search Task,2024.2.1post4,60.06763619786393,2024-10-10 21h18.59.270698 +0530,
199,0,199,[0.25462962962962965],[0.36574074074074076],[1],[0],[0],[1.688185699749738],['Target'],199,0,199,0,390.1544037000276,,5,390.13469520024955,390.1544037000276,390.1544037000276,0.01117839990183711,391.15568329999223,391.8233451000415,[0.25462962962962965],[0.36574074074074076],[1],[0],[0],[1.688185699749738],['Target'],2,002,2024-10-10_21h18.39.679,Visual Search Task,2024.2.1post4,60.06763619786393,2024-10-10 21h18.59.270698 +0530,
