thisN,thisTrialN,thisRepN,mouse.x,mouse.y,mouse.leftButton,mouse.midButton,mouse.rightButton,mouse.time,mouse.clicked_name,Trials.thisRepN,Trials.thisTrialN,Trials.thisN,Trials.thisIndex,thisRow.t,notes,num_distr,trial.started,Fixation.started,Target.started,mouse.started,Fixation.stopped,trial.stopped,Trials.mouse.x,Trials.mouse.y,Trials.mouse.leftButton,Trials.mouse.midButton,Trials.mouse.rightButton,Trials.mouse.time,Trials.mouse.clicked_name,participant,session,date,expName,psychopyVersion,frameRate,expStart,
0,0,0,[-0.2916666666666667],[0.011574074074074073],[1],[0],[0],[1.733778000343591],['Target'],0,0,0,0,0.07521719997748733,,10,0.0442714998498559,0.07521719997748733,0.07521719997748733,0.04397179977968335,1.0768273998983204,1.7788447001948953,[-0.2916666666666667],[0.011574074074074073],[1],[0],[0],[1.733778000343591],['Target'],3,003,2024-10-10_21h32.03.772,Visual Search Task,2024.2.1post4,60.04549041847582,2024-10-10 21h32.17.720214 +0530,
1,0,1,[0.3958333333333333],[0.3402777777777778],[1],[0],[0],[1.8924105004407465],['Target'],1,0,1,0,1.8250783998519182,,5,1.8019389999099076,1.8250783998519182,1.8250783998519182,0.022764999885112047,2.8266044999472797,3.6951593002304435,[0.3958333333333333],[0.3402777777777778],[1],[0],[0],[1.8924105004407465],['Target'],3,003,2024-10-10_21h32.03.772,Visual Search Task,2024.2.1post4,60.04549041847582,2024-10-10 21h32.17.720214 +0530,
2,0,2,[-0.38657407407407407],[-0.02546296296296296],[1],[0],[0],[1.6894859001040459],['Target'],2,0,2,0,3.758387300185859,,10,3.737930600065738,3.758387300185859,3.758387300185859,0.042497099842876196,4.759844100102782,5.428226000163704,[-0.38657407407407407],[-0.02546296296296296],[1],[0],[0],[1.6894859001040459],['Target'],3,003,2024-10-10_21h32.03.772,Visual Search Task,2024.2.1post4,60.04549041847582,2024-10-10 21h32.17.720214 +0530,
3,0,3,[-0.48032407407407407],[0.4444444444444444],[1],[0],[0],[1.9632408996112645],['Target'],3,0,3,0,5.491177699994296,,10,5.464456600137055,5.491177699994296,5.491177699994296,0.03588620014488697,6.493179600220174,7.428559000138193,[-0.48032407407407407],[0.4444444444444444],[1],[0],[0],[1.9632408996112645],['Target'],3,003,2024-10-10_21h32.03.772,Visual Search Task,2024.2.1post4,60.04549041847582,2024-10-10 21h32.17.720214 +0530,
4,0,4,[0.2708333333333333],[-0.4537037037037037],[1],[0],[0],[3.504672300070524],['Target'],4,0,4,0,7.474344400223345,,5,7.456831300165504,7.474344400223345,7.474344400223345,0.02800250006839633,8.47598069999367,10.962409399915487,[0.2708333333333333],[-0.4537037037037037],[1],[0],[0],[3.504672300070524],['Target'],3,003,2024-10-10_21h32.03.772,Visual Search Task,2024.2.1post4,60.04549041847582,2024-10-10 21h32.17.720214 +0530,
5,0,5,[0.17939814814814814],[-0.4652777777777778],[1],[0],[0],[2.8427710002288222],['Target'],5,0,5,0,11.024099899921566,,10,11.000811600126326,11.024099899921566,11.024099899921566,0.03813049988821149,12.025498500093818,13.844321299809963,[0.17939814814814814],[-0.4652777777777778],[1],[0],[0],[2.8427710002288222],['Target'],3,003,2024-10-10_21h32.03.772,Visual Search Task,2024.2.1post4,60.04549041847582,2024-10-10 21h32.17.720214 +0530,
6,0,6,[-0.40162037037037035],[0.1863425925925926],[1],[0],[0],[1.5253415000624955],['Target'],6,0,6,0,13.907113899942487,,10,13.884131699800491,13.907113899942487,13.907113899942487,0.03955900017172098,14.908398100174963,15.410259299911559,[-0.40162037037037035],[0.1863425925925926],[1],[0],[0],[1.5253415000624955],['Target'],3,003,2024-10-10_21h32.03.772,Visual Search Task,2024.2.1post4,60.04549041847582,2024-10-10 21h32.17.720214 +0530,
7,0,7,[-0.4710648148148148],[0.17939814814814814],[1],[0],[0],[1.71746820025146],['Target'],7,0,7,0,15.473585799802095,,10,15.444625299889594,15.473585799802095,15.473585799802095,0.03403400024399161,16.474830199964345,17.162841899786144,[-0.4710648148148148],[0.17939814814814814],[1],[0],[0],[1.71746820025146],['Target'],3,003,2024-10-10_21h32.03.772,Visual Search Task,2024.2.1post4,60.04549041847582,2024-10-10 21h32.17.720214 +0530,
8,0,8,[-0.03935185185185185],[-0.23842592592592593],[1],[0],[0],[2.337935999967158],['Target'],8,0,8,0,17.223205300047994,,10,17.204733499791473,17.223205300047994,17.223205300047994,0.04155500000342727,18.22471440024674,19.543480600230396,[-0.03935185185185185],[-0.23842592592592593],[1],[0],[0],[2.337935999967158],['Target'],3,003,2024-10-10_21h32.03.772,Visual Search Task,2024.2.1post4,60.04549041847582,2024-10-10 21h32.17.720214 +0530,
9,0,9,[0.43171296296296297],[-0.2708333333333333],[1],[0],[0],[2.4728907998651266],['Target'],9,0,9,0,19.58961659995839,,5,19.568860200233757,19.58961659995839,19.58961659995839,0.024997399654239416,20.59090259997174,22.04259489988908,[0.43171296296296297],[-0.2708333333333333],[1],[0],[0],[2.4728907998651266],['Target'],3,003,2024-10-10_21h32.03.772,Visual Search Task,2024.2.1post4,60.04549041847582,2024-10-10 21h32.17.720214 +0530,
10,0,10,[-0.0023148148148148147],[-0.32407407407407407],[1],[0],[0],[2.59722590027377],['Target'],10,0,10,0,22.10573840001598,,10,22.078484000172466,22.10573840001598,22.10573840001598,0.03561230003833771,23.107966999989003,24.67649650014937,[-0.0023148148148148147],[-0.32407407407407407],[1],[0],[0],[2.59722590027377],['Target'],3,003,2024-10-10_21h32.03.772,Visual Search Task,2024.2.1post4,60.04549041847582,2024-10-10 21h32.17.720214 +0530,
11,0,11,[0.3472222222222222],[-0.23842592592592593],[1],[0],[0],[2.1925945999100804],['Target'],11,0,11,0,24.722329600248486,,5,24.70177729986608,24.722329600248486,24.722329600248486,0.024965499993413687,25.72396729979664,26.89523100014776,[0.3472222222222222],[-0.23842592592592593],[1],[0],[0],[2.1925945999100804],['Target'],3,003,2024-10-10_21h32.03.772,Visual Search Task,2024.2.1post4,60.04549041847582,2024-10-10 21h32.17.720214 +0530,
12,0,12,[-0.4398148148148148],[0.4375],[1],[0],[0],[3.2963732997886837],['Target'],12,0,12,0,26.955943999812007,,10,26.92899759998545,26.955943999812007,26.955943999812007,0.03348740004003048,27.957585600204766,30.226117299869657,[-0.4398148148148148],[0.4375],[1],[0],[0],[3.2963732997886837],['Target'],3,003,2024-10-10_21h32.03.772,Visual Search Task,2024.2.1post4,60.04549041847582,2024-10-10 21h32.17.720214 +0530,
13,0,13,[-0.03819444444444445],[0.24537037037037038],[1],[0],[0],[1.743826000019908],['Target'],13,0,13,0,30.289041900075972,,10,30.264916900079697,30.289041900075972,30.289041900075972,0.038451400119811296,31.29040260007605,32.00951430015266,[-0.03819444444444445],[0.24537037037037038],[1],[0],[0],[1.743826000019908],['Target'],3,003,2024-10-10_21h32.03.772,Visual Search Task,2024.2.1post4,60.04549041847582,2024-10-10 21h32.17.720214 +0530,
14,0,14,[-0.23148148148148148],[-0.3414351851851852],[1],[0],[0],[2.476952100172639],['Target'],14,0,14,0,32.05537680024281,,5,32.0313523998484,32.05537680024281,32.05537680024281,0.021514900028705597,33.05722489999607,34.509127099998295,[-0.23148148148148148],[-0.3414351851851852],[1],[0],[0],[2.476952100172639],['Target'],3,003,2024-10-10_21h32.03.772,Visual Search Task,2024.2.1post4,60.04549041847582,2024-10-10 21h32.17.720214 +0530,
15,0,15,[0.49537037037037035],[0.3784722222222222],[1],[0],[0],[2.924999199807644],['Target'],15,0,15,0,34.57168699987233,,10,34.54895590012893,34.57168699987233,34.57168699987233,0.039567400235682726,35.573340700007975,37.47474500024691,[0.49537037037037035],[0.3784722222222222],[1],[0],[0],[2.924999199807644],['Target'],3,003,2024-10-10_21h32.03.772,Visual Search Task,2024.2.1post4,60.04549041847582,2024-10-10 21h32.17.720214 +0530,
16,0,16,[0.22106481481481483],[-0.2662037037037037],[1],[0],[0],[2.2823226996697485],['Target'],16,0,16,0,37.53799539990723,,10,37.508791300002486,37.53799539990723,37.53799539990723,0.03371840016916394,38.53956119995564,39.79190339986235,[0.22106481481481483],[-0.2662037037037037],[1],[0],[0],[2.2823226996697485],['Target'],3,003,2024-10-10_21h32.03.772,Visual Search Task,2024.2.1post4,60.04549041847582,2024-10-10 21h32.17.720214 +0530,
17,0,17,[-0.07291666666666667],[-0.30439814814814814],[1],[0],[0],[2.4492342001758516],['Target'],17,0,17,0,39.85438589984551,,10,39.82402040017769,39.85438589984551,39.85438589984551,0.0317823002114892,40.85517940018326,42.2740484001115,[-0.07291666666666667],[-0.30439814814814814],[1],[0],[0],[2.4492342001758516],['Target'],3,003,2024-10-10_21h32.03.772,Visual Search Task,2024.2.1post4,60.04549041847582,2024-10-10 21h32.17.720214 +0530,
18,0,18,[-0.2349537037037037],[0.15856481481481483],[1],[0],[0],[1.8289967998862267],['Target'],18,0,18,0,42.3365083001554,,10,42.310934300068766,42.3365083001554,42.3365083001554,0.036532200407236814,43.33835249999538,44.140742199961096,[-0.2349537037037037],[0.15856481481481483],[1],[0],[0],[1.8289967998862267],['Target'],3,003,2024-10-10_21h32.03.772,Visual Search Task,2024.2.1post4,60.04549041847582,2024-10-10 21h32.17.720214 +0530,
19,0,19,[-0.32407407407407407],[0.0011574074074074073],[1],[0],[0],[1.6541060996241868],['Target'],19,0,19,0,44.18654800020158,,5,44.16872669989243,44.18654800020158,44.18654800020158,0.02766579994931817,45.18798589985818,45.82370139984414,[-0.32407407407407407],[0.0011574074074074073],[1],[0],[0],[1.6541060996241868],['Target'],3,003,2024-10-10_21h32.03.772,Visual Search Task,2024.2.1post4,60.04549041847582,2024-10-10 21h32.17.720214 +0530,
20,0,20,[0.3576388888888889],[0.3819444444444444],[1],[0],[0],[1.7560027004219592],['Target'],20,0,20,0,45.86936919996515,,5,45.84946769988164,45.86936919996515,45.86936919996515,0.025494199711829424,46.871409399900585,47.60633709980175,[0.3576388888888889],[0.3819444444444444],[1],[0],[0],[1.7560027004219592],['Target'],3,003,2024-10-10_21h32.03.772,Visual Search Task,2024.2.1post4,60.04549041847582,2024-10-10 21h32.17.720214 +0530,
21,0,21,[0.21064814814814814],[0.3368055555555556],[1],[0],[0],[1.3640436003915966],['Target'],21,0,21,0,47.66925919987261,,10,47.641443700063974,47.66925919987261,47.66925919987261,0.03483640030026436,48.67050499981269,49.00628270022571,[0.21064814814814814],[0.3368055555555556],[1],[0],[0],[1.3640436003915966],['Target'],3,003,2024-10-10_21h32.03.772,Visual Search Task,2024.2.1post4,60.04549041847582,2024-10-10 21h32.17.720214 +0530,
22,0,22,[-0.4375],[-0.0775462962962963],[1],[0],[0],[1.8495539003051817],['Target'],22,0,22,0,49.05231350008398,,10,49.0389697002247,49.05231350008398,49.05231350008398,0.032366900239139795,50.0542574999854,50.889303099829704,[-0.4375],[-0.0775462962962963],[1],[0],[0],[1.8495539003051817],['Target'],3,003,2024-10-10_21h32.03.772,Visual Search Task,2024.2.1post4,60.04549041847582,2024-10-10 21h32.17.720214 +0530,
23,0,23,[-0.3923611111111111],[0.44907407407407407],[1],[0],[0],[3.1197591996751726],['Target'],23,0,23,0,50.952186999842525,,10,50.93610789999366,50.952186999842525,50.952186999842525,0.046488200314342976,51.953723799902946,54.056726899929345,[-0.3923611111111111],[0.44907407407407407],[1],[0],[0],[3.1197591996751726],['Target'],3,003,2024-10-10_21h32.03.772,Visual Search Task,2024.2.1post4,60.04549041847582,2024-10-10 21h32.17.720214 +0530,
24,0,24,[-0.13194444444444445],[0.12037037037037036],[1],[0],[0],[1.690093600191176],['Target'],24,0,24,0,54.101815700065345,,5,54.081821700092405,54.101815700065345,54.101815700065345,0.024783700238913298,55.10343339992687,55.772748600225896,[-0.13194444444444445],[0.12037037037037036],[1],[0],[0],[1.690093600191176],['Target'],3,003,2024-10-10_21h32.03.772,Visual Search Task,2024.2.1post4,60.04549041847582,2024-10-10 21h32.17.720214 +0530,
25,0,25,[0.22569444444444445],[-0.43287037037037035],[1],[0],[0],[2.3772806003689766],['Target'],25,0,25,0,55.81830980023369,,5,55.7944223000668,55.81830980023369,55.81830980023369,0.021394699811935425,56.82002389989793,58.17251930013299,[0.22569444444444445],[-0.43287037037037035],[1],[0],[0],[2.3772806003689766],['Target'],3,003,2024-10-10_21h32.03.772,Visual Search Task,2024.2.1post4,60.04549041847582,2024-10-10 21h32.17.720214 +0530,
26,0,26,[0.20023148148148148],[-0.009259259259259259],[1],[0],[0],[1.6214123000390828],['Target'],26,0,26,0,58.23471560003236,,10,58.215534599963576,58.23471560003236,58.23471560003236,0.0427478002384305,59.236089900135994,59.83795090019703,[0.20023148148148148],[-0.009259259259259259],[1],[0],[0],[1.6214123000390828],['Target'],3,003,2024-10-10_21h32.03.772,Visual Search Task,2024.2.1post4,60.04549041847582,2024-10-10 21h32.17.720214 +0530,
27,0,27,[0.29282407407407407],[0.046296296296296294],[1],[0],[0],[1.5794926998205483],['Target'],27,0,27,0,59.88453759998083,,5,59.859484899789095,59.88453759998083,59.88453759998083,0.021171399857848883,60.886023900005966,61.43982939980924,[0.29282407407407407],[0.046296296296296294],[1],[0],[0],[1.5794926998205483],['Target'],3,003,2024-10-10_21h32.03.772,Visual Search Task,2024.2.1post4,60.04549041847582,2024-10-10 21h32.17.720214 +0530,
28,0,28,[0.09143518518518519],[0.19907407407407407],[1],[0],[0],[1.7690698998048902],['Target'],28,0,28,0,61.48458690010011,,5,61.46803050022572,61.48458690010011,61.48458690010011,0.027951700147241354,62.48632510006428,63.23794690007344,[0.09143518518518519],[0.19907407407407407],[1],[0],[0],[1.7690698998048902],['Target'],3,003,2024-10-10_21h32.03.772,Visual Search Task,2024.2.1post4,60.04549041847582,2024-10-10 21h32.17.720214 +0530,
29,0,29,[0.1388888888888889],[0.3680555555555556],[1],[0],[0],[1.3879186999984086],['Target'],29,0,29,0,63.28465940011665,,5,63.2665555998683,63.28465940011665,63.28465940011665,0.02836850006133318,64.28601970011368,64.65530139999464,[0.1388888888888889],[0.3680555555555556],[1],[0],[0],[1.3879186999984086],['Target'],3,003,2024-10-10_21h32.03.772,Visual Search Task,2024.2.1post4,60.04549041847582,2024-10-10 21h32.17.720214 +0530,
30,0,30,[0.06944444444444445],[-0.15162037037037038],[1],[0],[0],[1.8794395001605153],['Target'],30,0,30,0,64.71786310011521,,10,64.69139569997787,64.71786310011521,64.71786310011521,0.035776599775999784,65.71950800018385,66.5716269002296,[0.06944444444444445],[-0.15162037037037038],[1],[0],[0],[1.8794395001605153],['Target'],3,003,2024-10-10_21h32.03.772,Visual Search Task,2024.2.1post4,60.04549041847582,2024-10-10 21h32.17.720214 +0530,
31,0,31,[-0.05439814814814815],[0.4722222222222222],[1],[0],[0],[1.4740484999492764],['Target'],31,0,31,0,66.63442080002278,,10,66.61425579991192,66.63442080002278,66.63442080002278,0.04228290030732751,67.63588789990172,68.08909170003608,[-0.05439814814814815],[0.4722222222222222],[1],[0],[0],[1.4740484999492764],['Target'],3,003,2024-10-10_21h32.03.772,Visual Search Task,2024.2.1post4,60.04549041847582,2024-10-10 21h32.17.720214 +0530,
32,0,32,[0.3287037037037037],[-0.13657407407407407],[1],[0],[0],[2.2210448998957872],['Target'],32,0,32,0,68.13417589990422,,5,68.11612250003964,68.13417589990422,68.13417589990422,0.026751399971544743,69.13577760010958,70.33798449998721,[0.3287037037037037],[-0.13657407407407407],[1],[0],[0],[2.2210448998957872],['Target'],3,003,2024-10-10_21h32.03.772,Visual Search Task,2024.2.1post4,60.04549041847582,2024-10-10 21h32.17.720214 +0530,
33,0,33,[0.13310185185185186],[-0.1724537037037037],[1],[0],[0],[1.4410867998376489],['Target'],33,0,33,0,70.38390540005639,,5,70.36209700023755,70.38390540005639,70.38390540005639,0.023847700096666813,71.38532709982246,71.80404630023986,[0.13310185185185186],[-0.1724537037037037],[1],[0],[0],[1.4410867998376489],['Target'],3,003,2024-10-10_21h32.03.772,Visual Search Task,2024.2.1post4,60.04549041847582,2024-10-10 21h32.17.720214 +0530,
34,0,34,[0.34953703703703703],[0.3761574074074074],[1],[0],[0],[1.417716100346297],['Target'],34,0,34,0,71.8837222000584,,10,71.85244749998674,71.8837222000584,71.8837222000584,0.048071700148284435,72.88515979982913,73.27102820016444,[0.34953703703703703],[0.3761574074074074],[1],[0],[0],[1.417716100346297],['Target'],3,003,2024-10-10_21h32.03.772,Visual Search Task,2024.2.1post4,60.04549041847582,2024-10-10 21h32.17.720214 +0530,
35,0,35,[-0.3715277777777778],[0.006944444444444444],[1],[0],[0],[2.5779055999591947],['Target'],35,0,35,0,73.3334165001288,,10,73.3092688000761,73.3334165001288,73.3334165001288,0.037905399687588215,74.33524450007826,75.88797259982675,[-0.3715277777777778],[0.006944444444444444],[1],[0],[0],[2.5779055999591947],['Target'],3,003,2024-10-10_21h32.03.772,Visual Search Task,2024.2.1post4,60.04549041847582,2024-10-10 21h32.17.720214 +0530,
36,0,36,[-0.2835648148148148],[-0.19791666666666666],[1],[0],[0],[1.8155348002910614],['Target'],36,0,36,0,75.94962560012937,,10,75.92160570016131,75.94962560012937,75.94962560012937,0.03302669990807772,76.95143069978803,77.73791630007327,[-0.2835648148148148],[-0.19791666666666666],[1],[0],[0],[1.8155348002910614],['Target'],3,003,2024-10-10_21h32.03.772,Visual Search Task,2024.2.1post4,60.04549041847582,2024-10-10 21h32.17.720214 +0530,
37,0,37,[0.4722222222222222],[0.42939814814814814],[1],[0],[0],[2.049075100105256],['Target'],37,0,37,0,77.79959930013865,,10,77.76989550003782,77.79959930013865,77.79959930013865,0.031648500356823206,78.80148770008236,79.81981390016153,[0.4722222222222222],[0.42939814814814814],[1],[0],[0],[2.049075100105256],['Target'],3,003,2024-10-10_21h32.03.772,Visual Search Task,2024.2.1post4,60.04549041847582,2024-10-10 21h32.17.720214 +0530,
38,0,38,[0.40046296296296297],[0.2743055555555556],[1],[0],[0],[1.8403253997676075],['Target'],38,0,38,0,79.88261999981478,,10,79.86375829996541,79.88261999981478,79.88261999981478,0.04360800003632903,80.8841471998021,81.70496609993279,[0.40046296296296297],[0.2743055555555556],[1],[0],[0],[1.8403253997676075],['Target'],3,003,2024-10-10_21h32.03.772,Visual Search Task,2024.2.1post4,60.04549041847582,2024-10-10 21h32.17.720214 +0530,
39,0,39,[0.3993055555555556],[0.09143518518518519],[1],[0],[0],[1.3727384000085294],['Target'],39,0,39,0,81.76624169992283,,10,81.74657309986651,81.76624169992283,81.76624169992283,0.04128200002014637,82.76733190007508,83.12008599983528,[0.3993055555555556],[0.09143518518518519],[1],[0],[0],[1.3727384000085294],['Target'],3,003,2024-10-10_21h32.03.772,Visual Search Task,2024.2.1post4,60.04549041847582,2024-10-10 21h32.17.720214 +0530,
40,0,40,[-0.4479166666666667],[0.1423611111111111],[1],[0],[0],[2.7254385999403894],['Target'],40,0,40,0,83.16566770011559,,5,83.1434855000116,83.16566770011559,83.16566770011559,0.02308420045301318,84.16704110009596,85.86973679997027,[-0.4479166666666667],[0.1423611111111111],[1],[0],[0],[2.7254385999403894],['Target'],3,003,2024-10-10_21h32.03.772,Visual Search Task,2024.2.1post4,60.04549041847582,2024-10-10 21h32.17.720214 +0530,
41,0,41,[-0.24537037037037038],[-0.1574074074074074],[1],[0],[0],[1.9279482001438737],['Target'],41,0,41,0,85.93197630019858,,10,85.90679109981284,85.93197630019858,85.93197630019858,0.03678689990192652,86.93328220024705,87.83547980012372,[-0.24537037037037038],[-0.1574074074074074],[1],[0],[0],[1.9279482001438737],['Target'],3,003,2024-10-10_21h32.03.772,Visual Search Task,2024.2.1post4,60.04549041847582,2024-10-10 21h32.17.720214 +0530,
42,0,42,[-0.3101851851851852],[0.1886574074074074],[1],[0],[0],[1.4489605999551713],['Target'],42,0,42,0,87.89834650000557,,10,87.86906730011106,87.89834650000557,87.89834650000557,0.03326330007985234,88.89990290021524,89.31881880015135,[-0.3101851851851852],[0.1886574074074074],[1],[0],[0],[1.4489605999551713],['Target'],3,003,2024-10-10_21h32.03.772,Visual Search Task,2024.2.1post4,60.04549041847582,2024-10-10 21h32.17.720214 +0530,
43,0,43,[-0.2048611111111111],[-0.33564814814814814],[1],[0],[0],[1.4726833999156952],['Target'],43,0,43,0,89.38172930013388,,10,89.36232900014147,89.38172930013388,89.38172930013388,0.04318180028349161,90.38297609984875,90.83581200009212,[-0.2048611111111111],[-0.33564814814814814],[1],[0],[0],[1.4726833999156952],['Target'],3,003,2024-10-10_21h32.03.772,Visual Search Task,2024.2.1post4,60.04549041847582,2024-10-10 21h32.17.720214 +0530,
44,0,44,[-0.375],[-0.1724537037037037],[1],[0],[0],[1.4002030999399722],['Target'],44,0,44,0,90.88101739995182,,10,90.86682889983058,90.88101739995182,90.88101739995182,0.030693599954247475,91.88194369990379,92.26778650004417,[-0.375],[-0.1724537037037037],[1],[0],[0],[1.4002030999399722],['Target'],3,003,2024-10-10_21h32.03.772,Visual Search Task,2024.2.1post4,60.04549041847582,2024-10-10 21h32.17.720214 +0530,
45,0,45,[-0.2361111111111111],[0.34837962962962965],[1],[0],[0],[2.599814400076866],['Target'],45,0,45,0,92.33018019981682,,10,92.30054839979857,92.33018019981682,92.33018019981682,0.032429799903184175,93.33202290022746,94.90116810007021,[-0.2361111111111111],[0.34837962962962965],[1],[0],[0],[2.599814400076866],['Target'],3,003,2024-10-10_21h32.03.772,Visual Search Task,2024.2.1post4,60.04549041847582,2024-10-10 21h32.17.720214 +0530,
46,0,46,[0.08796296296296297],[-0.4027777777777778],[1],[0],[0],[2.5925103002227843],['Target'],46,0,46,0,94.9467641999945,,5,94.92363790003583,94.9467641999945,94.9467641999945,0.0219224002212286,95.94839059980586,97.51704070018604,[0.08796296296296297],[-0.4027777777777778],[1],[0],[0],[2.5925103002227843],['Target'],3,003,2024-10-10_21h32.03.772,Visual Search Task,2024.2.1post4,60.04549041847582,2024-10-10 21h32.17.720214 +0530,
47,0,47,[0.03587962962962963],[0.4791666666666667],[1],[0],[0],[1.642236900050193],['Target'],47,0,47,0,97.56295489985496,,5,97.54179110005498,97.56295489985496,97.56295489985496,0.024490800220519304,98.5645485999994,99.18487690016627,[0.03587962962962963],[0.4791666666666667],[1],[0],[0],[1.642236900050193],['Target'],3,003,2024-10-10_21h32.03.772,Visual Search Task,2024.2.1post4,60.04549041847582,2024-10-10 21h32.17.720214 +0530,
48,0,48,[0.019675925925925927],[0.2673611111111111],[1],[0],[0],[1.225261399988085],['Target'],48,0,48,0,99.22936860006303,,5,99.20771409990266,99.22936860006303,99.22936860006303,0.022578999865800142,100.23084540013224,100.43385979998857,[0.019675925925925927],[0.2673611111111111],[1],[0],[0],[1.225261399988085],['Target'],3,003,2024-10-10_21h32.03.772,Visual Search Task,2024.2.1post4,60.04549041847582,2024-10-10 21h32.17.720214 +0530,
49,0,49,[-0.2986111111111111],[-0.1261574074074074],[1],[0],[0],[1.6418940001167357],['Target'],49,0,49,0,100.47933429991826,,5,100.45699150022119,100.47933429991826,100.47933429991826,0.022867599967867136,101.48113379999995,102.09975640010089,[-0.2986111111111111],[-0.1261574074074074],[1],[0],[0],[1.6418940001167357],['Target'],3,003,2024-10-10_21h32.03.772,Visual Search Task,2024.2.1post4,60.04549041847582,2024-10-10 21h32.17.720214 +0530,
50,0,50,[0.2662037037037037],[0.4236111111111111],[1],[0],[0],[2.8968154997564852],['Target'],50,0,50,0,102.16276489989832,,10,102.13584200013429,102.16276489989832,102.16276489989832,0.03582459967583418,103.16411479981616,105.03342959983274,[0.2662037037037037],[0.4236111111111111],[1],[0],[0],[2.8968154997564852],['Target'],3,003,2024-10-10_21h32.03.772,Visual Search Task,2024.2.1post4,60.04549041847582,2024-10-10 21h32.17.720214 +0530,
51,0,51,[-0.13541666666666666],[0.20023148148148148],[1],[0],[0],[1.5605350998230278],['Target'],51,0,51,0,105.07932659983635,,5,105.05501000024378,105.07932659983635,105.07932659983635,0.021267800126224756,106.0810715998523,106.61644400004297,[-0.13541666666666666],[0.20023148148148148],[1],[0],[0],[1.5605350998230278],['Target'],3,003,2024-10-10_21h32.03.772,Visual Search Task,2024.2.1post4,60.04549041847582,2024-10-10 21h32.17.720214 +0530,
52,0,52,[0.08449074074074074],[-0.31828703703703703],[1],[0],[0],[1.8383803004398942],['Target'],52,0,52,0,106.66245019994676,,5,106.64425410004333,106.66245019994676,106.66245019994676,0.02744270022958517,107.66343809990212,108.48349549993873,[0.08449074074074074],[-0.31828703703703703],[1],[0],[0],[1.8383803004398942],['Target'],3,003,2024-10-10_21h32.03.772,Visual Search Task,2024.2.1post4,60.04549041847582,2024-10-10 21h32.17.720214 +0530,
53,0,53,[0.3263888888888889],[-0.48726851851851855],[1],[0],[0],[4.108504199888557],['Target'],53,0,53,0,108.54480740008876,,10,108.52287930017337,108.54480740008876,108.54480740008876,0.03910259995609522,109.54645009990782,112.63215370010585,[0.3263888888888889],[-0.48726851851851855],[1],[0],[0],[4.108504199888557],['Target'],3,003,2024-10-10_21h32.03.772,Visual Search Task,2024.2.1post4,60.04549041847582,2024-10-10 21h32.17.720214 +0530,
54,0,54,[-0.2743055555555556],[-0.09143518518518519],[1],[0],[0],[1.6791840996593237],['Target'],54,0,54,0,112.69470919994637,,10,112.66888590017334,112.69470919994637,112.69470919994637,0.0363926999270916,113.6964810998179,114.34884369978681,[-0.2743055555555556],[-0.09143518518518519],[1],[0],[0],[1.6791840996593237],['Target'],3,003,2024-10-10_21h32.03.772,Visual Search Task,2024.2.1post4,60.04549041847582,2024-10-10 21h32.17.720214 +0530,
55,0,55,[-0.4618055555555556],[-0.12037037037037036],[1],[0],[0],[2.3459797999821603],['Target'],55,0,55,0,114.39488299982622,,5,114.36842289986089,114.39488299982622,114.39488299982622,0.0192650998942554,115.39670359995216,116.71518470020965,[-0.4618055555555556],[-0.12037037037037036],[1],[0],[0],[2.3459797999821603],['Target'],3,003,2024-10-10_21h32.03.772,Visual Search Task,2024.2.1post4,60.04549041847582,2024-10-10 21h32.17.720214 +0530,
56,0,56,[-0.45601851851851855],[0.005787037037037037],[1],[0],[0],[1.1791265001520514],['Target'],56,0,56,0,116.77799810003489,,10,116.75139999995008,116.77799810003489,116.77799810003489,0.03600300010293722,117.7793883997947,117.93132629990578,[-0.45601851851851855],[0.005787037037037037],[1],[0],[0],[1.1791265001520514],['Target'],3,003,2024-10-10_21h32.03.772,Visual Search Task,2024.2.1post4,60.04549041847582,2024-10-10 21h32.17.720214 +0530,
57,0,57,[-0.3402777777777778],[0.05787037037037037],[1],[0],[0],[1.0620367000810802],['Target'],57,0,57,0,117.9780216999352,,5,117.95418229978532,117.9780216999352,117.9780216999352,0.02250610012561083,118.97929800022393,119.01702040014789,[-0.3402777777777778],[0.05787037037037037],[1],[0],[0],[1.0620367000810802],['Target'],3,003,2024-10-10_21h32.03.772,Visual Search Task,2024.2.1post4,60.04549041847582,2024-10-10 21h32.17.720214 +0530,
58,0,58,[-0.4664351851851852],[-0.4664351851851852],[1],[0],[0],[2.0400228002108634],['Target'],58,0,58,0,119.07772130006924,,10,119.0566989001818,119.07772130006924,119.07772130006924,0.03939440008252859,120.07928219996393,121.09749219985679,[-0.4664351851851852],[-0.4664351851851852],[1],[0],[0],[2.0400228002108634],['Target'],3,003,2024-10-10_21h32.03.772,Visual Search Task,2024.2.1post4,60.04549041847582,2024-10-10 21h32.17.720214 +0530,
59,0,59,[-0.2326388888888889],[0.14930555555555555],[1],[0],[0],[1.512526599690318],['Target'],59,0,59,0,121.16068030009046,,10,121.1348655000329,121.16068030009046,121.16068030009046,0.037036600057035685,122.16248479997739,122.64817970013246,[-0.2326388888888889],[0.14930555555555555],[1],[0],[0],[1.512526599690318],['Target'],3,003,2024-10-10_21h32.03.772,Visual Search Task,2024.2.1post4,60.04549041847582,2024-10-10 21h32.17.720214 +0530,
60,0,60,[0.0775462962962963],[0.006944444444444444],[1],[0],[0],[1.881472600158304],['Target'],60,0,60,0,122.71069310000166,,10,122.68168829986826,122.71069310000166,122.71069310000166,0.033185699954628944,123.71218529995531,124.56389340013266,[0.0775462962962963],[0.006944444444444444],[1],[0],[0],[1.881472600158304],['Target'],3,003,2024-10-10_21h32.03.772,Visual Search Task,2024.2.1post4,60.04549041847582,2024-10-10 21h32.17.720214 +0530,
61,0,61,[-0.35300925925925924],[0.1875],[1],[0],[0],[1.9238562998361886],['Target'],61,0,61,0,124.62695709988475,,10,124.60568909998983,124.62695709988475,124.62695709988475,0.04145590029656887,125.6284683002159,126.53048230009153,[-0.35300925925925924],[0.1875],[1],[0],[0],[1.9238562998361886],['Target'],3,003,2024-10-10_21h32.03.772,Visual Search Task,2024.2.1post4,60.04549041847582,2024-10-10 21h32.17.720214 +0530,
62,0,62,[-0.4537037037037037],[-0.11805555555555555],[1],[0],[0],[1.444262399803847],['Target'],62,0,62,0,126.57647070009261,,5,126.55326800001785,126.57647070009261,126.57647070009261,0.02245129970833659,127.57749019982293,127.99834850011393,[-0.4537037037037037],[-0.11805555555555555],[1],[0],[0],[1.444262399803847],['Target'],3,003,2024-10-10_21h32.03.772,Visual Search Task,2024.2.1post4,60.04549041847582,2024-10-10 21h32.17.720214 +0530,
63,0,63,[0.12268518518518519],[0.45717592592592593],[1],[0],[0],[3.445752300322056],['Target'],63,0,63,0,128.05901659978554,,10,128.03242910001427,128.05901659978554,128.05901659978554,0.03381380019709468,129.0604750001803,131.47893769992515,[0.12268518518518519],[0.45717592592592593],[1],[0],[0],[3.445752300322056],['Target'],3,003,2024-10-10_21h32.03.772,Visual Search Task,2024.2.1post4,60.04549041847582,2024-10-10 21h32.17.720214 +0530,
64,0,64,[0.016203703703703703],[-0.0798611111111111],[1],[0],[0],[1.4281258000992239],['Target'],64,0,64,0,131.52547900006175,,5,131.50005500018597,131.52547900006175,131.52547900006175,0.02077369997277856,132.52718969993293,132.92885070014745,[0.016203703703703703],[-0.0798611111111111],[1],[0],[0],[1.4281258000992239],['Target'],3,003,2024-10-10_21h32.03.772,Visual Search Task,2024.2.1post4,60.04549041847582,2024-10-10 21h32.17.720214 +0530,
65,0,65,[0.15046296296296297],[-0.0763888888888889],[1],[0],[0],[1.6976546999067068],['Target'],65,0,65,0,132.97474020021036,,5,132.9503617999144,132.97474020021036,132.97474020021036,0.02126839989796281,133.97641569981351,134.64881899999455,[0.15046296296296297],[-0.0763888888888889],[1],[0],[0],[1.6976546999067068],['Target'],3,003,2024-10-10_21h32.03.772,Visual Search Task,2024.2.1post4,60.04549041847582,2024-10-10 21h32.17.720214 +0530,
66,0,66,[0.33449074074074076],[-0.28935185185185186],[1],[0],[0],[1.7108821999281645],['Target'],66,0,66,0,134.7081658001989,,10,134.68363020010293,134.7081658001989,134.7081658001989,0.03448079992085695,135.70986599987373,136.3952878001146,[0.33449074074074076],[-0.28935185185185186],[1],[0],[0],[1.7108821999281645],['Target'],3,003,2024-10-10_21h32.03.772,Visual Search Task,2024.2.1post4,60.04549041847582,2024-10-10 21h32.17.720214 +0530,
67,0,67,[0.12037037037037036],[0.015046296296296295],[1],[0],[0],[1.3804021999239922],['Target'],67,0,67,0,136.4247547998093,,5,136.4146941001527,136.4247547998093,136.4247547998093,0.01908749993890524,137.42655650014058,137.79587360005826,[0.12037037037037036],[0.015046296296296295],[1],[0],[0],[1.3804021999239922],['Target'],3,003,2024-10-10_21h32.03.772,Visual Search Task,2024.2.1post4,60.04549041847582,2024-10-10 21h32.17.720214 +0530,
68,0,68,[0.25462962962962965],[-0.41782407407407407],[1],[0],[0],[2.3457699003629386],['Target'],68,0,68,0,137.85771360015497,,10,137.83183339983225,137.85771360015497,137.85771360015497,0.03569600032642484,138.85923819988966,140.17837639991194,[0.25462962962962965],[-0.41782407407407407],[1],[0],[0],[2.3457699003629386],['Target'],3,003,2024-10-10_21h32.03.772,Visual Search Task,2024.2.1post4,60.04549041847582,2024-10-10 21h32.17.720214 +0530,
69,0,69,[-0.1412037037037037],[0.06018518518518518],[1],[0],[0],[1.7377797001972795],['Target'],69,0,69,0,140.22415179992095,,5,140.2061618999578,140.22415179992095,140.22415179992095,0.02750499965623021,141.22584380023181,141.94476719992235,[-0.1412037037037037],[0.06018518518518518],[1],[0],[0],[1.7377797001972795],['Target'],3,003,2024-10-10_21h32.03.772,Visual Search Task,2024.2.1post4,60.04549041847582,2024-10-10 21h32.17.720214 +0530,
70,0,70,[0.13657407407407407],[0.24537037037037038],[1],[0],[0],[1.721843299921602],['Target'],70,0,70,0,141.99068140005693,,5,141.97175960009918,141.99068140005693,141.99068140005693,0.026742500253021717,142.99224379984662,143.6944798999466,[0.13657407407407407],[0.24537037037037038],[1],[0],[0],[1.721843299921602],['Target'],3,003,2024-10-10_21h32.03.772,Visual Search Task,2024.2.1post4,60.04549041847582,2024-10-10 21h32.17.720214 +0530,
71,0,71,[-0.18287037037037038],[0.3425925925925926],[1],[0],[0],[1.4418168999254704],['Target'],71,0,71,0,143.7407149998471,,5,143.71830700011924,143.7407149998471,143.7407149998471,0.023568099830299616,144.7422986999154,145.16091410024092,[-0.18287037037037038],[0.3425925925925926],[1],[0],[0],[1.4418168999254704],['Target'],3,003,2024-10-10_21h32.03.772,Visual Search Task,2024.2.1post4,60.04549041847582,2024-10-10 21h32.17.720214 +0530,
72,0,72,[0.27314814814814814],[-0.3298611111111111],[1],[0],[0],[1.6922769001685083],['Target'],72,0,72,0,145.20729950023815,,5,145.1860473002307,145.20729950023815,145.20729950023815,0.024882000405341387,146.20926469983533,146.879072799813,[0.27314814814814814],[-0.3298611111111111],[1],[0],[0],[1.6922769001685083],['Target'],3,003,2024-10-10_21h32.03.772,Visual Search Task,2024.2.1post4,60.04549041847582,2024-10-10 21h32.17.720214 +0530,
73,0,73,[-0.15393518518518517],[-0.1597222222222222],[1],[0],[0],[1.9876039000228047],['Target'],73,0,73,0,146.92407919978723,,5,146.90556890005246,146.92407919978723,146.92407919978723,0.026232299860566854,147.9256036998704,148.89396690018475,[-0.15393518518518517],[-0.1597222222222222],[1],[0],[0],[1.9876039000228047],['Target'],3,003,2024-10-10_21h32.03.772,Visual Search Task,2024.2.1post4,60.04549041847582,2024-10-10 21h32.17.720214 +0530,
74,0,74,[-0.11458333333333333],[0.06944444444444445],[1],[0],[0],[1.5560806998983026],['Target'],74,0,74,0,148.9404783998616,,5,148.92207479989156,148.9404783998616,148.9404783998616,0.027864099945873022,149.94219380011782,150.47901319991797,[-0.11458333333333333],[0.06944444444444445],[1],[0],[0],[1.5560806998983026],['Target'],3,003,2024-10-10_21h32.03.772,Visual Search Task,2024.2.1post4,60.04549041847582,2024-10-10 21h32.17.720214 +0530,
75,0,75,[0.04513888888888889],[-0.03356481481481482],[1],[0],[0],[1.4051318001002073],['Target'],75,0,75,0,150.52364300005138,,5,150.50448720017448,150.52364300005138,150.52364300005138,0.02522249985486269,151.52523369994015,151.91044300002977,[0.04513888888888889],[-0.03356481481481482],[1],[0],[0],[1.4051318001002073],['Target'],3,003,2024-10-10_21h32.03.772,Visual Search Task,2024.2.1post4,60.04549041847582,2024-10-10 21h32.17.720214 +0530,
76,0,76,[0.48032407407407407],[-0.29282407407407407],[1],[0],[0],[3.820435300003737],['Target'],76,0,76,0,151.97356380010024,,10,151.95549050020054,151.97356380010024,151.97356380010024,0.04477619985118508,152.97518459986895,155.77669209986925,[0.48032407407407407],[-0.29282407407407407],[1],[0],[0],[3.820435300003737],['Target'],3,003,2024-10-10_21h32.03.772,Visual Search Task,2024.2.1post4,60.04549041847582,2024-10-10 21h32.17.720214 +0530,
77,0,77,[-0.3680555555555556],[-0.2986111111111111],[1],[0],[0],[1.6052632997743785],['Target'],77,0,77,0,155.82299849996343,,5,155.8044754001312,155.82299849996343,155.82299849996343,0.02746039954945445,156.82620749995112,157.41061009978876,[-0.3680555555555556],[-0.2986111111111111],[1],[0],[0],[1.6052632997743785],['Target'],3,003,2024-10-10_21h32.03.772,Visual Search Task,2024.2.1post4,60.04549041847582,2024-10-10 21h32.17.720214 +0530,
78,0,78,[-0.4525462962962963],[0.42824074074074076],[1],[0],[0],[2.557196000125259],['Target'],78,0,78,0,157.4729925999418,,10,157.45150920003653,157.4729925999418,157.4729925999418,0.04063900001347065,158.47447580005974,160.0094904000871,[-0.4525462962962963],[0.42824074074074076],[1],[0],[0],[2.557196000125259],['Target'],3,003,2024-10-10_21h32.03.772,Visual Search Task,2024.2.1post4,60.04549041847582,2024-10-10 21h32.17.720214 +0530,
79,0,79,[0.26273148148148145],[-0.10648148148148148],[1],[0],[0],[1.6611016998067498],['Target'],79,0,79,0,160.05586360022426,,5,160.03069890011102,160.05586360022426,160.05586360022426,0.02090019965544343,161.05734510021284,161.6925876000896,[0.26273148148148145],[-0.10648148148148148],[1],[0],[0],[1.6611016998067498],['Target'],3,003,2024-10-10_21h32.03.772,Visual Search Task,2024.2.1post4,60.04549041847582,2024-10-10 21h32.17.720214 +0530,
80,0,80,[-0.20949074074074073],[0.39699074074074076],[1],[0],[0],[1.4874789998866618],['Target'],80,0,80,0,161.7554688001983,,10,161.73773870011792,161.7554688001983,161.7554688001983,0.044878500048071146,162.75704579986632,163.22609720006585,[-0.20949074074074073],[0.39699074074074076],[1],[0],[0],[1.4874789998866618],['Target'],3,003,2024-10-10_21h32.03.772,Visual Search Task,2024.2.1post4,60.04549041847582,2024-10-10 21h32.17.720214 +0530,
81,0,81,[-0.16435185185185186],[-0.38425925925925924],[1],[0],[0],[2.0589576000347733],['Target'],81,0,81,0,163.27179059991613,,5,163.24864570004866,163.27179059991613,163.27179059991613,0.022221900057047606,164.27268389984965,165.3084042998962,[-0.16435185185185186],[-0.38425925925925924],[1],[0],[0],[2.0589576000347733],['Target'],3,003,2024-10-10_21h32.03.772,Visual Search Task,2024.2.1post4,60.04549041847582,2024-10-10 21h32.17.720214 +0530,
82,0,82,[-0.01273148148148148],[0.05439814814814815],[1],[0],[0],[1.3099508001469076],['Target'],82,0,82,0,165.3544414001517,,5,165.33051030011848,165.3544414001517,165.3544414001517,0.021822799928486347,166.35570889990777,166.64128699991852,[-0.01273148148148148],[0.05439814814814815],[1],[0],[0],[1.3099508001469076],['Target'],3,003,2024-10-10_21h32.03.772,Visual Search Task,2024.2.1post4,60.04549041847582,2024-10-10 21h32.17.720214 +0530,
83,0,83,[0.12731481481481483],[-0.37962962962962965],[1],[0],[0],[1.5254521002061665],['Target'],83,0,83,0,166.68755959998816,,5,166.66466119978577,166.68755959998816,166.68755959998816,0.023112500086426735,167.68907380010933,168.19088720018044,[0.12731481481481483],[-0.37962962962962965],[1],[0],[0],[1.5254521002061665],['Target'],3,003,2024-10-10_21h32.03.772,Visual Search Task,2024.2.1post4,60.04549041847582,2024-10-10 21h32.17.720214 +0530,
84,0,84,[-0.4224537037037037],[-0.3287037037037037],[1],[0],[0],[1.6776588996872306],['Target'],84,0,84,0,168.23745479993522,,5,168.2131663998589,168.23745479993522,168.23745479993522,0.02203330025076866,169.23895369982347,169.89160480024293,[-0.4224537037037037],[-0.3287037037037037],[1],[0],[0],[1.6776588996872306],['Target'],3,003,2024-10-10_21h32.03.772,Visual Search Task,2024.2.1post4,60.04549041847582,2024-10-10 21h32.17.720214 +0530,
85,0,85,[0.13310185185185186],[-0.41435185185185186],[1],[0],[0],[3.1631009997799993],['Target'],85,0,85,0,169.95434320019558,,10,169.92763420008123,169.95434320019558,169.95434320019558,0.0357617000117898,170.95582620007917,173.09157219994813,[0.13310185185185186],[-0.41435185185185186],[1],[0],[0],[3.1631009997799993],['Target'],3,003,2024-10-10_21h32.03.772,Visual Search Task,2024.2.1post4,60.04549041847582,2024-10-10 21h32.17.720214 +0530,
86,0,86,[0.04398148148148148],[0.2951388888888889],[1],[0],[0],[2.676899899728596],['Target'],86,0,86,0,173.13759180018678,,5,173.11351709999144,173.13759180018678,173.13759180018678,0.021532699931412935,174.13902779994532,175.79125100001693,[0.04398148148148148],[0.2951388888888889],[1],[0],[0],[2.676899899728596],['Target'],3,003,2024-10-10_21h32.03.772,Visual Search Task,2024.2.1post4,60.04549041847582,2024-10-10 21h32.17.720214 +0530,
87,0,87,[0.32407407407407407],[0.12037037037037036],[1],[0],[0],[2.479230500292033],['Target'],87,0,87,0,175.8537630001083,,10,175.8275334998034,175.8537630001083,175.8537630001083,0.03600840037688613,176.85526410024613,178.30750569980592,[0.32407407407407407],[0.12037037037037036],[1],[0],[0],[2.479230500292033],['Target'],3,003,2024-10-10_21h32.03.772,Visual Search Task,2024.2.1post4,60.04549041847582,2024-10-10 21h32.17.720214 +0530,
88,0,88,[0.26851851851851855],[-0.4270833333333333],[1],[0],[0],[2.2597513999789953],['Target'],88,0,88,0,178.35356919979677,,5,178.33029260020703,178.35356919979677,178.35356919979677,0.022442699875682592,179.35501410020515,180.590816100128,[0.26851851851851855],[-0.4270833333333333],[1],[0],[0],[2.2597513999789953],['Target'],3,003,2024-10-10_21h32.03.772,Visual Search Task,2024.2.1post4,60.04549041847582,2024-10-10 21h32.17.720214 +0530,
89,0,89,[-0.15625],[0.2048611111111111],[1],[0],[0],[1.5589644997380674],['Target'],89,0,89,0,180.6364529998973,,5,180.6138384002261,180.6364529998973,180.6364529998973,0.022695499937981367,181.63818959984928,182.1736500998959,[-0.15625],[0.2048611111111111],[1],[0],[0],[1.5589644997380674],['Target'],3,003,2024-10-10_21h32.03.772,Visual Search Task,2024.2.1post4,60.04549041847582,2024-10-10 21h32.17.720214 +0530,
90,0,90,[0.3020833333333333],[-0.4375],[0],[0],[1],[1.8415577998384833],['Target'],90,0,90,0,182.2195068001747,,5,182.19770279992372,182.2195068001747,182.2195068001747,0.023797399830073118,183.22131500020623,184.04006259981543,[0.3020833333333333],[-0.4375],[0],[0],[1],[1.8415577998384833],['Target'],3,003,2024-10-10_21h32.03.772,Visual Search Task,2024.2.1post4,60.04549041847582,2024-10-10 21h32.17.720214 +0530,
91,0,91,[-0.06944444444444445],[0.3472222222222222],[1],[0],[0],[1.146015700418502],['Target'],91,0,91,0,184.10299400007352,,10,184.07640750007704,184.10299400007352,184.10299400007352,0.036062899976968765,185.10422600014135,185.22321549989283,[-0.06944444444444445],[0.3472222222222222],[1],[0],[0],[1.146015700418502],['Target'],3,003,2024-10-10_21h32.03.772,Visual Search Task,2024.2.1post4,60.04549041847582,2024-10-10 21h32.17.720214 +0530,
92,0,92,[0.4363425925925926],[-0.04513888888888889],[1],[0],[0],[1.7043118998408318],['Target'],92,0,92,0,185.26913140015677,,5,185.25134760001674,185.26913140015677,185.26913140015677,0.02782880002632737,186.27095460006967,186.95649660006166,[0.4363425925925926],[-0.04513888888888889],[1],[0],[0],[1.7043118998408318],['Target'],3,003,2024-10-10_21h32.03.772,Visual Search Task,2024.2.1post4,60.04549041847582,2024-10-10 21h32.17.720214 +0530,
93,0,93,[0.06481481481481481],[0.4664351851851852],[1],[0],[0],[2.3693126998841763],['Target'],93,0,93,0,187.00243370002136,,5,186.98534150002524,187.00243370002136,187.00243370002136,0.02860260009765625,188.00394620001316,189.35553670022637,[0.06481481481481481],[0.4664351851851852],[1],[0],[0],[2.3693126998841763],['Target'],3,003,2024-10-10_21h32.03.772,Visual Search Task,2024.2.1post4,60.04549041847582,2024-10-10 21h32.17.720214 +0530,
94,0,94,[0.35532407407407407],[0.4398148148148148],[1],[0],[0],[1.430977599695325],['Target'],94,0,94,0,189.41836000001058,,10,189.3911381000653,189.41836000001058,189.41836000001058,0.03530169976875186,190.4202172998339,190.82291290024295,[0.35532407407407407],[0.4398148148148148],[1],[0],[0],[1.430977599695325],['Target'],3,003,2024-10-10_21h32.03.772,Visual Search Task,2024.2.1post4,60.04549041847582,2024-10-10 21h32.17.720214 +0530,
95,0,95,[-0.375],[0.13194444444444445],[1],[0],[0],[1.2378203999251127],['Target'],95,0,95,0,190.86873329989612,,5,190.85070409998298,190.86873329989612,190.86873329989612,0.027449800167232752,191.86993789998814,192.08934100018814,[-0.375],[0.13194444444444445],[1],[0],[0],[1.2378203999251127],['Target'],3,003,2024-10-10_21h32.03.772,Visual Search Task,2024.2.1post4,60.04549041847582,2024-10-10 21h32.17.720214 +0530,
96,0,96,[0.4201388888888889],[0.12962962962962962],[1],[0],[0],[1.079097299836576],['Target'],96,0,96,0,192.15176639985293,,10,192.12593830004334,192.15176639985293,192.15176639985293,0.03632660023868084,193.15336909983307,193.2058223998174,[0.4201388888888889],[0.12962962962962962],[1],[0],[0],[1.079097299836576],['Target'],3,003,2024-10-10_21h32.03.772,Visual Search Task,2024.2.1post4,60.04549041847582,2024-10-10 21h32.17.720214 +0530,
97,0,97,"[-0.47800925925925924, -0.45717592592592593]","[0.30439814814814814, 0.3148148148148148]","[1, 1]","[0, 0]","[0, 0]","[1.0723913996480405, 1.738125499803573]","[None, 'Target']",97,0,97,0,193.25176479993388,,5,193.23266639979556,193.25176479993388,193.25176479993388,0.026559200137853622,194.25315439980477,194.9715740000829,"[-0.47800925925925924, -0.45717592592592593]","[0.30439814814814814, 0.3148148148148148]","[1, 1]","[0, 0]","[0, 0]","[1.0723913996480405, 1.738125499803573]","[None, 'Target']",3,003,2024-10-10_21h32.03.772,Visual Search Task,2024.2.1post4,60.04549041847582,2024-10-10 21h32.17.720214 +0530,
98,0,98,[-0.2199074074074074],[-0.4166666666666667],[1],[0],[0],[1.9361157002858818],['Target'],98,0,98,0,195.01797039993107,,5,195.00108599988744,195.01797039993107,195.01797039993107,0.02920870017260313,196.0195769998245,196.9379863999784,[-0.2199074074074074],[-0.4166666666666667],[1],[0],[0],[1.9361157002858818],['Target'],3,003,2024-10-10_21h32.03.772,Visual Search Task,2024.2.1post4,60.04549041847582,2024-10-10 21h32.17.720214 +0530,
99,0,99,[0.21643518518518517],[0.0763888888888889],[1],[0],[0],[1.5292617003433406],['Target'],99,0,99,0,197.00139180012047,,10,196.97435639984906,197.00139180012047,197.00139180012047,0.036106899846345186,198.00284540001303,198.50438679987565,[0.21643518518518517],[0.0763888888888889],[1],[0],[0],[1.5292617003433406],['Target'],3,003,2024-10-10_21h32.03.772,Visual Search Task,2024.2.1post4,60.04549041847582,2024-10-10 21h32.17.720214 +0530,
100,0,100,[0.4548611111111111],[-0.11226851851851852],[1],[0],[0],[1.7227349998429418],['Target'],100,0,100,0,198.55097479978576,,5,198.53187229996547,198.55097479978576,198.55097479978576,0.02716300031170249,199.5524209998548,200.2554429001175,[0.4548611111111111],[-0.11226851851851852],[1],[0],[0],[1.7227349998429418],['Target'],3,003,2024-10-10_21h32.03.772,Visual Search Task,2024.2.1post4,60.04549041847582,2024-10-10 21h32.17.720214 +0530,
101,0,101,[0.07523148148148148],[0.19907407407407407],[1],[0],[0],[1.3931729001924396],['Target'],101,0,101,0,200.30079249991104,,5,200.2780062998645,200.30079249991104,200.30079249991104,0.022292899899184704,201.30205509997904,201.67197530018166,[0.07523148148148148],[0.19907407407407407],[1],[0],[0],[1.3931729001924396],['Target'],3,003,2024-10-10_21h32.03.772,Visual Search Task,2024.2.1post4,60.04549041847582,2024-10-10 21h32.17.720214 +0530,
102,0,102,[-0.16898148148148148],[-0.24421296296296297],[1],[0],[0],[1.2718592998571694],['Target'],102,0,102,0,201.71707719983533,,5,201.70014260010794,201.71707719983533,201.71707719983533,0.027913100086152554,202.71869419980794,202.97289030021057,[-0.16898148148148148],[-0.24421296296296297],[1],[0],[0],[1.2718592998571694],['Target'],3,003,2024-10-10_21h32.03.772,Visual Search Task,2024.2.1post4,60.04549041847582,2024-10-10 21h32.17.720214 +0530,
103,0,103,[-0.26967592592592593],[-0.2152777777777778],[1],[0],[0],[0.8856041999533772],['Target'],103,0,103,0,203.01686110021546,,5,203.00103029981256,203.01686110021546,203.01686110021546,0.027873599901795387,,203.88749899994582,[-0.26967592592592593],[-0.2152777777777778],[1],[0],[0],[0.8856041999533772],['Target'],3,003,2024-10-10_21h32.03.772,Visual Search Task,2024.2.1post4,60.04549041847582,2024-10-10 21h32.17.720214 +0530,
104,0,104,[0.017361111111111112],[0.017361111111111112],[1],[0],[0],[1.4891734002158046],['Target'],104,0,104,0,204.00021990016103,,5,203.91715830005705,204.00021990016103,204.00021990016103,0.02944270009174943,205.00174580002204,205.40740949986503,[0.017361111111111112],[0.017361111111111112],[1],[0],[0],[1.4891734002158046],['Target'],3,003,2024-10-10_21h32.03.772,Visual Search Task,2024.2.1post4,60.04549041847582,2024-10-10 21h32.17.720214 +0530,
105,0,105,[0.1284722222222222],[-0.24305555555555555],[1],[0],[0],[2.1749658002518117],['Target'],105,0,105,0,205.46703039994463,,10,205.44468849990517,205.46703039994463,205.46703039994463,0.037015900015830994,206.46827730024233,207.62044729990885,[0.1284722222222222],[-0.24305555555555555],[1],[0],[0],[2.1749658002518117],['Target'],3,003,2024-10-10_21h32.03.772,Visual Search Task,2024.2.1post4,60.04549041847582,2024-10-10 21h32.17.720214 +0530,
106,0,106,[0.22685185185185186],[-0.1076388888888889],[1],[0],[0],[1.4076372999697924],['Target'],106,0,106,0,207.66628250014037,,5,207.6455978997983,207.66628250014037,207.66628250014037,0.024825999978929758,208.6679771002382,209.05408819997683,[0.22685185185185186],[-0.1076388888888889],[1],[0],[0],[1.4076372999697924],['Target'],3,003,2024-10-10_21h32.03.772,Visual Search Task,2024.2.1post4,60.04549041847582,2024-10-10 21h32.17.720214 +0530,
107,0,107,[0.22800925925925927],[-0.25578703703703703],[1],[0],[0],[1.0235029999166727],['Target'],107,0,107,0,209.11634390009567,,10,209.0953314998187,209.11634390009567,209.11634390009567,0.04097949992865324,210.11738950014114,210.11963069997728,[0.22800925925925927],[-0.25578703703703703],[1],[0],[0],[1.0235029999166727],['Target'],3,003,2024-10-10_21h32.03.772,Visual Search Task,2024.2.1post4,60.04549041847582,2024-10-10 21h32.17.720214 +0530,
108,0,108,[-0.3611111111111111],[0.1527777777777778],[1],[0],[0],[1.860386200249195],['Target'],108,0,108,0,210.18206850020215,,10,210.15821699984372,210.18206850020215,210.18206850020215,0.03825489990413189,211.18345060013235,212.0193766001612,[-0.3611111111111111],[0.1527777777777778],[1],[0],[0],[1.860386200249195],['Target'],3,003,2024-10-10_21h32.03.772,Visual Search Task,2024.2.1post4,60.04549041847582,2024-10-10 21h32.17.720214 +0530,
109,0,109,[0.12731481481481483],[-0.4618055555555556],[1],[0],[0],[2.392820700071752],['Target'],109,0,109,0,212.0819056998007,,10,212.05820590024814,212.0819056998007,212.0819056998007,0.038498600013554096,213.0833816002123,214.4517332999967,[0.12731481481481483],[-0.4618055555555556],[1],[0],[0],[2.392820700071752],['Target'],3,003,2024-10-10_21h32.03.772,Visual Search Task,2024.2.1post4,60.04549041847582,2024-10-10 21h32.17.720214 +0530,
110,0,110,[0.24421296296296297],[-0.2534722222222222],[1],[0],[0],[1.7944543999619782],['Target'],110,0,110,0,214.49836960015818,,5,214.47536859987304,214.49836960015818,214.49836960015818,0.02330730017274618,215.4996388000436,216.27062680013478,[0.24421296296296297],[-0.2534722222222222],[1],[0],[0],[1.7944543999619782],['Target'],3,003,2024-10-10_21h32.03.772,Visual Search Task,2024.2.1post4,60.04549041847582,2024-10-10 21h32.17.720214 +0530,
111,0,111,[-0.15046296296296297],[0.41203703703703703],[1],[0],[0],[1.1042939000763],['Target'],111,0,111,0,216.31457420019433,,5,216.29673589998856,216.31457420019433,216.31457420019433,0.02585530001670122,217.3160381000489,217.40185499982908,[-0.15046296296296297],[0.41203703703703703],[1],[0],[0],[1.1042939000763],['Target'],3,003,2024-10-10_21h32.03.772,Visual Search Task,2024.2.1post4,60.04549041847582,2024-10-10 21h32.17.720214 +0530,
112,0,112,[-0.4965277777777778],[0.38657407407407407],[1],[0],[0],[1.7752561001107097],['Target'],112,0,112,0,217.44773889984936,,5,217.42550159990788,217.44773889984936,217.44773889984936,0.02339620003476739,218.44937659986317,219.2015383001417,[-0.4965277777777778],[0.38657407407407407],[1],[0],[0],[1.7752561001107097],['Target'],3,003,2024-10-10_21h32.03.772,Visual Search Task,2024.2.1post4,60.04549041847582,2024-10-10 21h32.17.720214 +0530,
113,0,113,"[-0.15046296296296297, -0.12731481481481483]","[-0.019675925925925927, -0.019675925925925927]","[1, 1]","[0, 0]","[0, 0]","[1.2913456996902823, 2.1243897997774184]","[None, 'Target']",113,0,113,0,219.24761760002002,,5,219.22553319996223,219.24761760002002,219.24761760002002,0.02367970021441579,220.24941299995407,221.35064620012417,"[-0.15046296296296297, -0.12731481481481483]","[-0.019675925925925927, -0.019675925925925927]","[1, 1]","[0, 0]","[0, 0]","[1.2913456996902823, 2.1243897997774184]","[None, 'Target']",3,003,2024-10-10_21h32.03.772,Visual Search Task,2024.2.1post4,60.04549041847582,2024-10-10 21h32.17.720214 +0530,
114,0,114,"[0.45023148148148145, 0.4340277777777778]","[-0.45601851851851855, -0.4652777777777778]","[1, 1]","[0, 0]","[0, 0]","[2.9092721003107727, 3.790694400202483]","[None, 'Target']",114,0,114,0,221.41452619992197,,10,221.3927640002221,221.41452619992197,221.41452619992197,0.04180830018594861,222.41621420020238,225.18423809995875,"[0.45023148148148145, 0.4340277777777778]","[-0.45601851851851855, -0.4652777777777778]","[1, 1]","[0, 0]","[0, 0]","[2.9092721003107727, 3.790694400202483]","[None, 'Target']",3,003,2024-10-10_21h32.03.772,Visual Search Task,2024.2.1post4,60.04549041847582,2024-10-10 21h32.17.720214 +0530,
115,0,115,[-0.22453703703703703],[-0.25],[1],[0],[0],[1.7178251999430358],['Target'],115,0,115,0,225.24739550007507,,10,225.23240210022777,225.24739550007507,225.24739550007507,0.047770800068974495,226.24894789978862,226.95103489980102,[-0.22453703703703703],[-0.25],[1],[0],[0],[1.7178251999430358],['Target'],3,003,2024-10-10_21h32.03.772,Visual Search Task,2024.2.1post4,60.04549041847582,2024-10-10 21h32.17.720214 +0530,
116,0,116,[0.33796296296296297],[-0.1400462962962963],[1],[0],[0],[1.691080099903047],['Target'],116,0,116,0,226.99730879999697,,5,226.97598280012608,226.99730879999697,226.99730879999697,0.024525399785488844,227.99888460012153,228.6679135998711,[0.33796296296296297],[-0.1400462962962963],[1],[0],[0],[1.691080099903047],['Target'],3,003,2024-10-10_21h32.03.772,Visual Search Task,2024.2.1post4,60.04549041847582,2024-10-10 21h32.17.720214 +0530,
117,0,117,[0.44212962962962965],[-0.041666666666666664],[1],[0],[0],[1.37902250001207],['Target'],117,0,117,0,228.7301183999516,,10,228.70395100023597,228.7301183999516,228.7301183999516,0.035805399995297194,229.73200749978423,230.083799299784,[0.44212962962962965],[-0.041666666666666664],[1],[0],[0],[1.37902250001207],['Target'],3,003,2024-10-10_21h32.03.772,Visual Search Task,2024.2.1post4,60.04549041847582,2024-10-10 21h32.17.720214 +0530,
118,0,118,[-0.1840277777777778],[-0.24537037037037038],[1],[0],[0],[2.262527100276202],['Target'],118,0,118,0,230.1468997998163,,10,230.1205692999065,230.1468997998163,230.1468997998163,0.03644929965957999,231.14841279992834,232.383884599898,[-0.1840277777777778],[-0.24537037037037038],[1],[0],[0],[2.262527100276202],['Target'],3,003,2024-10-10_21h32.03.772,Visual Search Task,2024.2.1post4,60.04549041847582,2024-10-10 21h32.17.720214 +0530,
119,0,119,[0.22916666666666666],[-0.0011574074074074073],[1],[0],[0],[1.3819218999706209],['Target'],119,0,119,0,232.44670249987394,,10,232.4176762001589,232.44670249987394,232.44670249987394,0.03345960006117821,233.44829999981448,233.80044319992885,[0.22916666666666666],[-0.0011574074074074073],[1],[0],[0],[1.3819218999706209],['Target'],3,003,2024-10-10_21h32.03.772,Visual Search Task,2024.2.1post4,60.04549041847582,2024-10-10 21h32.17.720214 +0530,
120,0,120,[-0.2511574074074074],[0.10185185185185185],[1],[0],[0],[1.3099039997905493],['Target'],120,0,120,0,233.84652859997004,,5,233.82660820009187,233.84652859997004,233.84652859997004,0.0258627999573946,234.8480385998264,235.138193000108,[-0.2511574074074074],[0.10185185185185185],[1],[0],[0],[1.3099039997905493],['Target'],3,003,2024-10-10_21h32.03.772,Visual Search Task,2024.2.1post4,60.04549041847582,2024-10-10 21h32.17.720214 +0530,
121,0,121,[-0.30671296296296297],[-0.13194444444444445],[1],[0],[0],[1.2261331002227962],['Target'],121,0,121,0,235.2121192999184,,5,235.1882428000681,235.2121192999184,235.2121192999184,0.049411899875849485,236.21398579981178,236.4151695999317,[-0.30671296296296297],[-0.13194444444444445],[1],[0],[0],[1.2261331002227962],['Target'],3,003,2024-10-10_21h32.03.772,Visual Search Task,2024.2.1post4,60.04549041847582,2024-10-10 21h32.17.720214 +0530,
122,0,122,[-0.13657407407407407],[-0.4652777777777778],[0],[0],[1],[1.2324110995978117],['Target'],122,0,122,0,236.4788060998544,,10,236.44896209985018,236.4788060998544,236.4788060998544,0.0335941999219358,237.48040120024234,237.6820534998551,[-0.13657407407407407],[-0.4652777777777778],[0],[0],[1],[1.2324110995978117],['Target'],3,003,2024-10-10_21h32.03.772,Visual Search Task,2024.2.1post4,60.04549041847582,2024-10-10 21h32.17.720214 +0530,
123,0,123,[0.14351851851851852],[0.29398148148148145],[1],[0],[0],[2.1367135997861624],['Target'],123,0,123,0,237.728608999867,,10,237.7114853998646,237.728608999867,237.728608999867,0.029183699749410152,238.73021539999172,239.84923190018162,[0.14351851851851852],[0.29398148148148145],[1],[0],[0],[2.1367135997861624],['Target'],3,003,2024-10-10_21h32.03.772,Visual Search Task,2024.2.1post4,60.04549041847582,2024-10-10 21h32.17.720214 +0530,
124,0,124,[-0.1909722222222222],[0.35185185185185186],[1],[0],[0],[1.4524309001863003],['Target'],124,0,124,0,239.9119812999852,,10,239.89515030011535,239.9119812999852,239.9119812999852,0.045600300189107656,240.91323859989643,241.34840269992128,[-0.1909722222222222],[0.35185185185185186],[1],[0],[0],[1.4524309001863003],['Target'],3,003,2024-10-10_21h32.03.772,Visual Search Task,2024.2.1post4,60.04549041847582,2024-10-10 21h32.17.720214 +0530,
125,0,125,[-0.08564814814814815],[0.17708333333333334],[1],[0],[0],[0.9625791003927588],['Target'],125,0,125,0,241.39480949984863,,5,241.36875159991905,241.39480949984863,241.39480949984863,0.02001609979197383,,242.33212039992213,[-0.08564814814814815],[0.17708333333333334],[1],[0],[0],[0.9625791003927588],['Target'],3,003,2024-10-10_21h32.03.772,Visual Search Task,2024.2.1post4,60.04549041847582,2024-10-10 21h32.17.720214 +0530,
126,0,126,[-0.26851851851851855],[0.3298611111111111],[1],[0],[0],[1.4645913001149893],['Target'],126,0,126,0,242.39486479992047,,10,242.36820759996772,242.39486479992047,242.39486479992047,0.03583310032263398,243.3960159001872,243.83353349985555,[-0.26851851851851855],[0.3298611111111111],[1],[0],[0],[1.4645913001149893],['Target'],3,003,2024-10-10_21h32.03.772,Visual Search Task,2024.2.1post4,60.04549041847582,2024-10-10 21h32.17.720214 +0530,
127,0,127,[-0.17592592592592593],[0.0023148148148148147],[1],[0],[0],[0.960581099614501],['Target'],127,0,127,0,243.89467730000615,,10,243.8699575997889,243.89467730000615,243.89467730000615,0.03603339986875653,,244.83119930000976,[-0.17592592592592593],[0.0023148148148148147],[1],[0],[0],[0.960581099614501],['Target'],3,003,2024-10-10_21h32.03.772,Visual Search Task,2024.2.1post4,60.04549041847582,2024-10-10 21h32.17.720214 +0530,
128,0,128,[-0.39699074074074076],[-0.052083333333333336],[1],[0],[0],[1.1182951000519097],['Target'],128,0,128,0,244.86142640002072,,5,244.84653809992597,244.86142640002072,244.86142640002072,0.015032399911433458,245.86284849978983,245.9656249000691,[-0.39699074074074076],[-0.052083333333333336],[1],[0],[0],[1.1182951000519097],['Target'],3,003,2024-10-10_21h32.03.772,Visual Search Task,2024.2.1post4,60.04549041847582,2024-10-10 21h32.17.720214 +0530,
129,0,129,[0.052083333333333336],[0.0],[1],[0],[0],[1.1407733000814915],['Target'],129,0,129,0,246.010723200161,,5,245.99007999990135,246.010723200161,246.010723200161,0.024194899946451187,247.0122070000507,247.1317158001475,[0.052083333333333336],[0.0],[1],[0],[0],[1.1407733000814915],['Target'],3,003,2024-10-10_21h32.03.772,Visual Search Task,2024.2.1post4,60.04549041847582,2024-10-10 21h32.17.720214 +0530,
130,0,130,[0.07523148148148148],[-0.42824074074074076],[1],[0],[0],[1.48095089988783],['Target'],130,0,130,0,247.19395740004256,,10,247.16724700015038,247.19395740004256,247.19395740004256,0.03527119988575578,248.19575600000098,248.6489697000943,[0.07523148148148148],[-0.42824074074074076],[1],[0],[0],[1.48095089988783],['Target'],3,003,2024-10-10_21h32.03.772,Visual Search Task,2024.2.1post4,60.04549041847582,2024-10-10 21h32.17.720214 +0530,
131,0,131,[0.41550925925925924],[0.22800925925925927],[1],[0],[0],[1.1611930998042226],['Target'],131,0,131,0,248.69383500004187,,5,248.66925140004605,248.69383500004187,248.69383500004187,0.01996299996972084,249.6955244001001,249.83150730002671,[0.41550925925925924],[0.22800925925925927],[1],[0],[0],[1.1611930998042226],['Target'],3,003,2024-10-10_21h32.03.772,Visual Search Task,2024.2.1post4,60.04549041847582,2024-10-10 21h32.17.720214 +0530,
132,0,132,[0.3773148148148148],[0.26157407407407407],[1],[0],[0],[1.0912160999141634],['Target'],132,0,132,0,249.89391539990902,,10,249.87322300020605,249.89391539990902,249.89391539990902,0.041412599850445986,250.8951611998491,250.96522400015965,[0.3773148148148148],[0.26157407407407407],[1],[0],[0],[1.0912160999141634],['Target'],3,003,2024-10-10_21h32.03.772,Visual Search Task,2024.2.1post4,60.04549041847582,2024-10-10 21h32.17.720214 +0530,
133,0,133,[-0.020833333333333332],[0.04398148148148148],[1],[0],[0],[1.2740374002605677],['Target'],133,0,133,0,251.0270170001313,,10,251.00675750011578,251.0270170001313,251.0270170001313,0.041208900045603514,252.02904269983992,252.28153209993616,[-0.020833333333333332],[0.04398148148148148],[1],[0],[0],[1.2740374002605677],['Target'],3,003,2024-10-10_21h32.03.772,Visual Search Task,2024.2.1post4,60.04549041847582,2024-10-10 21h32.17.720214 +0530,
134,0,134,[0.35532407407407407],[0.4351851851851852],[1],[0],[0],[2.2517562001012266],['Target'],134,0,134,0,252.32720470009372,,10,252.31222999980673,252.32720470009372,252.32720470009372,0.030368399806320667,253.32900450006127,254.5648110997863,[0.35532407407407407],[0.4351851851851852],[1],[0],[0],[2.2517562001012266],['Target'],3,003,2024-10-10_21h32.03.772,Visual Search Task,2024.2.1post4,60.04549041847582,2024-10-10 21h32.17.720214 +0530,
135,0,135,[0.4351851851851852],[0.26967592592592593],[1],[0],[0],[1.7753900000825524],['Target'],135,0,135,0,254.62707199994475,,10,254.60511500015855,254.62707199994475,254.62707199994475,0.03997689997777343,255.62864460004494,256.38125510001555,[0.4351851851851852],[0.26967592592592593],[1],[0],[0],[1.7753900000825524],['Target'],3,003,2024-10-10_21h32.03.772,Visual Search Task,2024.2.1post4,60.04549041847582,2024-10-10 21h32.17.720214 +0530,
136,0,136,[0.3333333333333333],[0.1597222222222222],[1],[0],[0],[1.0718840998597443],['Target'],136,0,136,0,256.4269472998567,,5,256.40778219979256,256.4269472998567,256.4269472998567,0.026194999925792217,257.42843279987574,257.4804722000845,[0.3333333333333333],[0.1597222222222222],[1],[0],[0],[1.0718840998597443],['Target'],3,003,2024-10-10_21h32.03.772,Visual Search Task,2024.2.1post4,60.04549041847582,2024-10-10 21h32.17.720214 +0530,
137,0,137,[-0.1087962962962963],[-0.07060185185185185],[1],[0],[0],[1.091860800050199],['Target'],137,0,137,0,257.5435081999749,,10,257.52332590008155,257.5435081999749,257.5435081999749,0.04257709998637438,258.5450094002299,258.616050099954,[-0.1087962962962963],[-0.07060185185185185],[1],[0],[0],[1.091860800050199],['Target'],3,003,2024-10-10_21h32.03.772,Visual Search Task,2024.2.1post4,60.04549041847582,2024-10-10 21h32.17.720214 +0530,
138,0,138,[0.2650462962962963],[-0.09837962962962964],[1],[0],[0],[1.4424813999794424],['Target'],138,0,138,0,258.67681840015575,,10,258.65364640019834,258.67681840015575,258.67681840015575,0.03721639979630709,259.6782848997973,260.09703879989684,[0.2650462962962963],[-0.09837962962962964],[1],[0],[0],[1.4424813999794424],['Target'],3,003,2024-10-10_21h32.03.772,Visual Search Task,2024.2.1post4,60.04549041847582,2024-10-10 21h32.17.720214 +0530,
139,0,139,[0.34375],[-0.21296296296296297],[1],[0],[0],[2.0196409998461604],['Target'],139,0,139,0,260.1432638000697,,5,260.1256250999868,260.1432638000697,260.1432638000697,0.028267799876630306,261.1438656998798,262.14618539996445,[0.34375],[-0.21296296296296297],[1],[0],[0],[2.0196409998461604],['Target'],3,003,2024-10-10_21h32.03.772,Visual Search Task,2024.2.1post4,60.04549041847582,2024-10-10 21h32.17.720214 +0530,
140,0,140,[0.36689814814814814],[0.17592592592592593],[1],[0],[0],[1.173269699793309],['Target'],140,0,140,0,262.1921132998541,,5,262.17182910023257,262.1921132998541,262.1921132998541,0.025412899907678366,263.19386610016227,263.34598439978436,[0.36689814814814814],[0.17592592592592593],[1],[0],[0],[1.173269699793309],['Target'],3,003,2024-10-10_21h32.03.772,Visual Search Task,2024.2.1post4,60.04549041847582,2024-10-10 21h32.17.720214 +0530,
141,0,141,[0.0787037037037037],[0.45717592592592593],[1],[0],[0],[1.2033059000968933],['Target'],141,0,141,0,263.4085046998225,,10,263.39103680010885,263.4085046998225,263.4085046998225,0.04476890014484525,264.4104496999644,264.59508949983865,[0.0787037037037037],[0.45717592592592593],[1],[0],[0],[1.2033059000968933],['Target'],3,003,2024-10-10_21h32.03.772,Visual Search Task,2024.2.1post4,60.04549041847582,2024-10-10 21h32.17.720214 +0530,
142,0,142,[-0.037037037037037035],[-0.26851851851851855],[1],[0],[0],[1.9408089998178184],['Target'],142,0,142,0,264.64185849996284,,5,264.6211907998659,264.64185849996284,264.64185849996284,0.025822999887168407,265.64345999993384,266.5628209002316,[-0.037037037037037035],[-0.26851851851851855],[1],[0],[0],[1.9408089998178184],['Target'],3,003,2024-10-10_21h32.03.772,Visual Search Task,2024.2.1post4,60.04549041847582,2024-10-10 21h32.17.720214 +0530,
143,0,143,[-0.28125],[0.12037037037037036],[1],[0],[0],[1.3123451001010835],['Target'],143,0,143,0,266.6254306999035,,10,266.5989955002442,266.6254306999035,266.6254306999035,0.03590180026367307,267.6269137999043,267.91217389982194,[-0.28125],[0.12037037037037036],[1],[0],[0],[1.3123451001010835],['Target'],3,003,2024-10-10_21h32.03.772,Visual Search Task,2024.2.1post4,60.04549041847582,2024-10-10 21h32.17.720214 +0530,
144,0,144,[0.39467592592592593],[0.12962962962962962],[1],[0],[0],[1.2108694002963603],['Target'],144,0,144,0,267.95880099991336,,5,267.9342510998249,267.95880099991336,267.95880099991336,0.021774899680167437,268.9604346002452,269.1458934000693,[0.39467592592592593],[0.12962962962962962],[1],[0],[0],[1.2108694002963603],['Target'],3,003,2024-10-10_21h32.03.772,Visual Search Task,2024.2.1post4,60.04549041847582,2024-10-10 21h32.17.720214 +0530,
145,0,145,[0.20023148148148148],[-0.04282407407407408],[1],[0],[0],[1.1549378000199795],['Target'],145,0,145,0,269.20827329996973,,10,269.1902839001268,269.20827329996973,269.20827329996973,0.044133900199085474,270.21018829988316,270.345998799894,[0.20023148148148148],[-0.04282407407407408],[1],[0],[0],[1.1549378000199795],['Target'],3,003,2024-10-10_21h32.03.772,Visual Search Task,2024.2.1post4,60.04549041847582,2024-10-10 21h32.17.720214 +0530,
146,0,146,[0.4085648148148148],[-0.29398148148148145],[1],[0],[0],[1.139874099753797],['Target'],146,0,146,0,270.40876549994573,,10,270.3877587998286,270.40876549994573,270.40876549994573,0.04143509967252612,271.4092335999012,271.52839529979974,[0.4085648148148148],[-0.29398148148148145],[1],[0],[0],[1.139874099753797],['Target'],3,003,2024-10-10_21h32.03.772,Visual Search Task,2024.2.1post4,60.04549041847582,2024-10-10 21h32.17.720214 +0530,
147,0,147,[-0.34953703703703703],[0.32175925925925924],[1],[0],[0],[2.212192500010133],['Target'],147,0,147,0,271.57431080006063,,5,271.54865799983963,271.57431080006063,271.57431080006063,0.019935599993914366,272.5757050001994,273.76161279994994,[-0.34953703703703703],[0.32175925925925924],[1],[0],[0],[2.212192500010133],['Target'],3,003,2024-10-10_21h32.03.772,Visual Search Task,2024.2.1post4,60.04549041847582,2024-10-10 21h32.17.720214 +0530,
148,0,148,[-0.3113425925925926],[-0.3263888888888889],[1],[0],[0],[1.8222540002316236],['Target'],148,0,148,0,273.8075672998093,,5,273.78961959993467,273.8075672998093,273.8075672998093,0.02774009993299842,274.80885310005397,275.6128234001808,[-0.3113425925925926],[-0.3263888888888889],[1],[0],[0],[1.8222540002316236],['Target'],3,003,2024-10-10_21h32.03.772,Visual Search Task,2024.2.1post4,60.04549041847582,2024-10-10 21h32.17.720214 +0530,
149,0,149,[-0.22685185185185186],[-0.2800925925925926],[1],[0],[0],[1.2188884001225233],['Target'],149,0,149,0,275.6742362999357,,10,275.6576335998252,275.6742362999357,275.6742362999357,0.04423650028184056,276.67558530019596,276.8770228000358,[-0.22685185185185186],[-0.2800925925925926],[1],[0],[0],[1.2188884001225233],['Target'],3,003,2024-10-10_21h32.03.772,Visual Search Task,2024.2.1post4,60.04549041847582,2024-10-10 21h32.17.720214 +0530,
150,0,150,[0.41550925925925924],[0.47453703703703703],[1],[0],[0],[2.758278400171548],['Target'],150,0,150,0,276.9240791001357,,10,276.90273230010644,276.9240791001357,276.9240791001357,0.025544299744069576,277.9258870999329,279.66178640024737,[0.41550925925925924],[0.47453703703703703],[1],[0],[0],[2.758278400171548],['Target'],3,003,2024-10-10_21h32.03.772,Visual Search Task,2024.2.1post4,60.04549041847582,2024-10-10 21h32.17.720214 +0530,
151,0,151,[-0.18287037037037038],[0.3148148148148148],[1],[0],[0],[1.1592566999606788],['Target'],151,0,151,0,279.70749250007793,,5,279.68451779987663,279.70749250007793,279.70749250007793,0.022426200099289417,280.70882839988917,280.8446442000568,[-0.18287037037037038],[0.3148148148148148],[1],[0],[0],[1.1592566999606788],['Target'],3,003,2024-10-10_21h32.03.772,Visual Search Task,2024.2.1post4,60.04549041847582,2024-10-10 21h32.17.720214 +0530,
152,0,152,[-0.26967592592592593],[-0.30324074074074076],[1],[0],[0],[1.5024278000928462],['Target'],152,0,152,0,280.890405499842,,5,280.8732288000174,280.890405499842,280.890405499842,0.028348699677735567,281.8919374002144,282.376396600157,[-0.26967592592592593],[-0.30324074074074076],[1],[0],[0],[1.5024278000928462],['Target'],3,003,2024-10-10_21h32.03.772,Visual Search Task,2024.2.1post4,60.04549041847582,2024-10-10 21h32.17.720214 +0530,
153,0,153,[0.38078703703703703],[-0.05439814814814815],[1],[0],[0],[1.366524999961257],['Target'],153,0,153,0,282.4068038999103,,5,282.39266719995067,282.4068038999103,282.4068038999103,0.016123699955642223,283.4084259001538,283.75997330015525,[0.38078703703703703],[-0.05439814814814815],[1],[0],[0],[1.366524999961257],['Target'],3,003,2024-10-10_21h32.03.772,Visual Search Task,2024.2.1post4,60.04549041847582,2024-10-10 21h32.17.720214 +0530,
154,0,154,[-0.15625],[-0.25],[1],[0],[0],[1.4566631000488997],['Target'],154,0,154,0,283.8066181000322,,5,283.7882233001292,283.8066181000322,283.8066181000322,0.028007000219076872,284.808219099883,285.2457523001358,[-0.15625],[-0.25],[1],[0],[0],[1.4566631000488997],['Target'],3,003,2024-10-10_21h32.03.772,Visual Search Task,2024.2.1post4,60.04549041847582,2024-10-10 21h32.17.720214 +0530,
155,0,155,[-0.4375],[-0.08333333333333333],[1],[0],[0],[1.782181499991566],['Target'],155,0,155,0,285.3234015000053,,10,285.2934741000645,285.3234015000053,285.3234015000053,0.047424900345504284,286.3249893002212,287.0764560000971,[-0.4375],[-0.08333333333333333],[1],[0],[0],[1.782181499991566],['Target'],3,003,2024-10-10_21h32.03.772,Visual Search Task,2024.2.1post4,60.04549041847582,2024-10-10 21h32.17.720214 +0530,
156,0,156,[-0.1597222222222222],[0.19444444444444445],[1],[0],[0],[1.1882503000088036],['Target'],156,0,156,0,287.1230361000635,,5,287.1046000001952,287.1230361000635,287.1230361000635,0.027755499817430973,288.12461980013177,288.29378079995513,[-0.1597222222222222],[0.19444444444444445],[1],[0],[0],[1.1882503000088036],['Target'],3,003,2024-10-10_21h32.03.772,Visual Search Task,2024.2.1post4,60.04549041847582,2024-10-10 21h32.17.720214 +0530,
157,0,157,[0.47337962962962965],[-0.1412037037037037],[1],[0],[0],[2.2610984998755157],['Target'],157,0,157,0,288.356326200068,,10,288.3326715999283,288.356326200068,288.356326200068,0.03863660013303161,289.35778640024364,290.5951061998494,[0.47337962962962965],[-0.1412037037037037],[1],[0],[0],[2.2610984998755157],['Target'],3,003,2024-10-10_21h32.03.772,Visual Search Task,2024.2.1post4,60.04549041847582,2024-10-10 21h32.17.720214 +0530,
158,0,158,[0.3275462962962963],[0.3738425925925926],[1],[0],[0],[1.7854468999430537],['Target'],158,0,158,0,290.63925539981574,,5,290.62226520013064,290.63925539981574,290.63925539981574,0.02686419989913702,291.63996230019256,292.4084934000857,[0.3275462962962963],[0.3738425925925926],[1],[0],[0],[1.7854468999430537],['Target'],3,003,2024-10-10_21h32.03.772,Visual Search Task,2024.2.1post4,60.04549041847582,2024-10-10 21h32.17.720214 +0530,
159,0,159,[-0.08101851851851852],[0.04398148148148148],[1],[0],[0],[1.328672300092876],['Target'],159,0,159,0,292.471267899964,,10,292.4454034999944,292.471267899964,292.471267899964,0.03664440009742975,293.47312990017235,293.77484229998663,[-0.08101851851851852],[0.04398148148148148],[1],[0],[0],[1.328672300092876],['Target'],3,003,2024-10-10_21h32.03.772,Visual Search Task,2024.2.1post4,60.04549041847582,2024-10-10 21h32.17.720214 +0530,
160,0,160,[0.47453703703703703],[0.49537037037037035],[1],[0],[0],[2.1323405001312494],['Target'],160,0,160,0,293.8383181998506,,10,293.808622200042,293.8383181998506,293.8383181998506,0.03344140015542507,294.83973409980536,295.94174350006506,[0.47453703703703703],[0.49537037037037035],[1],[0],[0],[2.1323405001312494],['Target'],3,003,2024-10-10_21h32.03.772,Visual Search Task,2024.2.1post4,60.04549041847582,2024-10-10 21h32.17.720214 +0530,
161,0,161,[-0.33449074074074076],[-0.11921296296296297],[1],[0],[0],[1.2932051001116633],['Target'],161,0,161,0,295.98796990001574,,5,295.96396500011906,295.98796990001574,295.98796990001574,0.021932699717581272,296.98933199979365,297.25792559981346,[-0.33449074074074076],[-0.11921296296296297],[1],[0],[0],[1.2932051001116633],['Target'],3,003,2024-10-10_21h32.03.772,Visual Search Task,2024.2.1post4,60.04549041847582,2024-10-10 21h32.17.720214 +0530,
162,0,162,[-0.38078703703703703],[0.3368055555555556],[1],[0],[0],[1.5234348000958562],['Target'],162,0,162,0,297.3210701001808,,10,297.30007629981264,297.3210701001808,297.3210701001808,0.04186620004475117,298.32254259986803,298.8241655002348,[-0.38078703703703703],[0.3368055555555556],[1],[0],[0],[1.5234348000958562],['Target'],3,003,2024-10-10_21h32.03.772,Visual Search Task,2024.2.1post4,60.04549041847582,2024-10-10 21h32.17.720214 +0530,
163,0,163,[0.005787037037037037],[-0.20717592592592593],[1],[0],[0],[1.774595399852842],['Target'],163,0,163,0,298.87079659989104,,5,298.8495983001776,298.87079659989104,298.87079659989104,0.025199400261044502,299.8731819000095,300.62507370021194,[0.005787037037037037],[-0.20717592592592593],[1],[0],[0],[1.774595399852842],['Target'],3,003,2024-10-10_21h32.03.772,Visual Search Task,2024.2.1post4,60.04549041847582,2024-10-10 21h32.17.720214 +0530,
164,0,164,[-0.0625],[-0.28587962962962965],[1],[0],[0],[2.0482059000059962],['Target'],164,0,164,0,300.68751069996506,,10,300.6593491998501,300.68751069996506,300.68751069996506,0.034023699816316366,301.6887395000085,302.708480599802,[-0.0625],[-0.28587962962962965],[1],[0],[0],[2.0482059000059962],['Target'],3,003,2024-10-10_21h32.03.772,Visual Search Task,2024.2.1post4,60.04549041847582,2024-10-10 21h32.17.720214 +0530,
165,0,165,[-0.375],[0.4791666666666667],[1],[0],[0],[1.9536655000410974],['Target'],165,0,165,0,302.75439869984984,,5,302.7369106002152,302.75439869984984,302.75439869984984,0.028168300166726112,303.75603649998084,304.69146110024303,[-0.375],[0.4791666666666667],[1],[0],[0],[1.9536655000410974],['Target'],3,003,2024-10-10_21h32.03.772,Visual Search Task,2024.2.1post4,60.04549041847582,2024-10-10 21h32.17.720214 +0530,
166,0,166,[-0.19791666666666666],[0.36921296296296297],[1],[0],[0],[2.1702592000365257],['Target'],166,0,166,0,304.7539312001318,,10,304.7353187999688,304.7539312001318,304.7539312001318,0.04360299976542592,305.7555348998867,306.90637499978766,[-0.19791666666666666],[0.36921296296296297],[1],[0],[0],[2.1702592000365257],['Target'],3,003,2024-10-10_21h32.03.772,Visual Search Task,2024.2.1post4,60.04549041847582,2024-10-10 21h32.17.720214 +0530,
167,0,167,[0.2222222222222222],[-0.08912037037037036],[1],[0],[0],[1.9126111003570259],['Target'],167,0,167,0,306.95318609988317,,5,306.92855060007423,306.95318609988317,306.95318609988317,0.021849799901247025,307.95462140021846,308.84192410018295,[0.2222222222222222],[-0.08912037037037036],[1],[0],[0],[1.9126111003570259],['Target'],3,003,2024-10-10_21h32.03.772,Visual Search Task,2024.2.1post4,60.04549041847582,2024-10-10 21h32.17.720214 +0530,
168,0,168,[-0.015046296296296295],[-0.4525462962962963],[1],[0],[0],[2.7576076998375356],['Target'],168,0,168,0,308.90301010012627,,10,308.8822984001599,308.90301010012627,308.90301010012627,0.0401018001139164,309.9043817999773,311.6407775999978,[-0.015046296296296295],[-0.4525462962962963],[1],[0],[0],[2.7576076998375356],['Target'],3,003,2024-10-10_21h32.03.772,Visual Search Task,2024.2.1post4,60.04549041847582,2024-10-10 21h32.17.720214 +0530,
169,0,169,[-0.09375],[0.2037037037037037],[1],[0],[0],[1.4983902000822127],['Target'],169,0,169,0,311.70279259979725,,10,311.676427999977,311.70279259979725,311.70279259979725,0.03530819993466139,312.70455949986354,313.17567740008235,[-0.09375],[0.2037037037037037],[1],[0],[0],[1.4983902000822127],['Target'],3,003,2024-10-10_21h32.03.772,Visual Search Task,2024.2.1post4,60.04549041847582,2024-10-10 21h32.17.720214 +0530,
170,0,170,[0.17476851851851852],[0.15625],[1],[0],[0],[1.6782305999659002],['Target'],170,0,170,0,313.23619320010766,,10,313.21129979984835,313.23619320010766,313.23619320010766,0.034942399710416794,314.2381520001218,314.89032500004396,[0.17476851851851852],[0.15625],[1],[0],[0],[1.6782305999659002],['Target'],3,003,2024-10-10_21h32.03.772,Visual Search Task,2024.2.1post4,60.04549041847582,2024-10-10 21h32.17.720214 +0530,
171,0,171,[0.2534722222222222],[0.31712962962962965],[1],[0],[0],[1.874899999704212],['Target'],171,0,171,0,314.9363879999146,,5,314.91405950021,314.9363879999146,314.9363879999146,0.023380300030112267,315.93777689989656,316.7897311002016,[0.2534722222222222],[0.31712962962962965],[1],[0],[0],[1.874899999704212],['Target'],3,003,2024-10-10_21h32.03.772,Visual Search Task,2024.2.1post4,60.04549041847582,2024-10-10 21h32.17.720214 +0530,
172,0,172,[0.013888888888888888],[0.08333333333333333],[1],[0],[0],[6.778465100098401],['Target'],172,0,172,0,316.8517864001915,,10,316.8253823001869,316.8517864001915,316.8517864001915,0.035374800208956,317.8531876001507,323.60464280005544,[0.013888888888888888],[0.08333333333333333],[1],[0],[0],[6.778465100098401],['Target'],3,003,2024-10-10_21h32.03.772,Visual Search Task,2024.2.1post4,60.04549041847582,2024-10-10 21h32.17.720214 +0530,
173,0,173,[0.29398148148148145],[0.04050925925925926],[1],[0],[0],[1.089767400175333],['Target'],173,0,173,0,323.6676044999622,,10,323.6479711001739,323.6676044999622,323.6676044999622,0.04302089987322688,324.6692007002421,324.7385983997956,[0.29398148148148145],[0.04050925925925926],[1],[0],[0],[1.089767400175333],['Target'],3,003,2024-10-10_21h32.03.772,Visual Search Task,2024.2.1post4,60.04549041847582,2024-10-10 21h32.17.720214 +0530,
174,0,174,[0.2048611111111111],[-0.31712962962962965],[1],[0],[0],[1.755051199812442],['Target'],174,0,174,0,324.7841850002296,,5,324.7664443999529,324.7841850002296,324.7841850002296,0.027542799711227417,325.78584640007466,326.5222379001789,[0.2048611111111111],[-0.31712962962962965],[1],[0],[0],[1.755051199812442],['Target'],3,003,2024-10-10_21h32.03.772,Visual Search Task,2024.2.1post4,60.04549041847582,2024-10-10 21h32.17.720214 +0530,
175,0,175,[-0.2326388888888889],[-0.36574074074074076],[1],[0],[0],[2.232086999807507],['Target'],175,0,175,0,326.5840867999941,,10,326.55601800000295,326.5840867999941,326.5840867999941,0.0334756001830101,327.58548180013895,328.788867500145,[-0.2326388888888889],[-0.36574074074074076],[1],[0],[0],[2.232086999807507],['Target'],3,003,2024-10-10_21h32.03.772,Visual Search Task,2024.2.1post4,60.04549041847582,2024-10-10 21h32.17.720214 +0530,
176,0,176,[-0.45023148148148145],[0.21412037037037038],[1],[0],[0],[1.9251431999728084],['Target'],176,0,176,0,328.83360549993813,,5,328.81140600005165,328.83360549993813,328.83360549993813,0.02220629993826151,329.83525949995965,330.7373629999347,[-0.45023148148148145],[0.21412037037037038],[1],[0],[0],[1.9251431999728084],['Target'],3,003,2024-10-10_21h32.03.772,Visual Search Task,2024.2.1post4,60.04549041847582,2024-10-10 21h32.17.720214 +0530,
177,0,177,[-0.4479166666666667],[0.09143518518518519],[1],[0],[0],[0.9605894996784627],['Target'],177,0,177,0,330.8002070002258,,10,330.7760272999294,330.8002070002258,330.8002070002258,0.03840120043605566,,331.73751530004665,[-0.4479166666666667],[0.09143518518518519],[1],[0],[0],[0.9605894996784627],['Target'],3,003,2024-10-10_21h32.03.772,Visual Search Task,2024.2.1post4,60.04549041847582,2024-10-10 21h32.17.720214 +0530,
178,0,178,[-0.005787037037037037],[-0.14814814814814814],[1],[0],[0],[1.5768556999973953],['Target'],178,0,178,0,331.7877410999499,,5,331.7605993999168,331.7877410999499,331.7877410999499,0.02269779983907938,332.80185930011794,333.33825320005417,[-0.005787037037037037],[-0.14814814814814814],[1],[0],[0],[1.5768556999973953],['Target'],3,003,2024-10-10_21h32.03.772,Visual Search Task,2024.2.1post4,60.04549041847582,2024-10-10 21h32.17.720214 +0530,
179,0,179,[0.19560185185185186],[-0.3541666666666667],[1],[0],[0],[1.60958920000121],['Target'],179,0,179,0,333.40023679984733,,10,333.37711030011997,333.40023679984733,333.40023679984733,0.03859290014952421,334.4018875998445,334.98738190019503,[0.19560185185185186],[-0.3541666666666667],[1],[0],[0],[1.60958920000121],['Target'],3,003,2024-10-10_21h32.03.772,Visual Search Task,2024.2.1post4,60.04549041847582,2024-10-10 21h32.17.720214 +0530,
180,0,180,[0.011574074074074073],[-0.019675925925925927],[1],[0],[0],[1.1339749000035226],['Target'],180,0,180,0,335.03323369985446,,10,335.01971800019965,335.03323369985446,335.03323369985446,0.032078899908810854,336.03513409988955,336.1544714998454,[0.011574074074074073],[-0.019675925925925927],[1],[0],[0],[1.1339749000035226],['Target'],3,003,2024-10-10_21h32.03.772,Visual Search Task,2024.2.1post4,60.04549041847582,2024-10-10 21h32.17.720214 +0530,
181,0,181,[0.3738425925925926],[-0.37037037037037035],[1],[0],[0],[2.226635799743235],['Target'],181,0,181,0,336.2167019001208,,10,336.1928369002417,336.2167019001208,336.2167019001208,0.03802890004590154,337.21875330014154,338.4202216998674,[0.3738425925925926],[-0.37037037037037035],[1],[0],[0],[2.226635799743235],['Target'],3,003,2024-10-10_21h32.03.772,Visual Search Task,2024.2.1post4,60.04549041847582,2024-10-10 21h32.17.720214 +0530,
182,0,182,[0.1574074074074074],[0.3414351851851852],[1],[0],[0],[1.3221646999008954],['Target'],182,0,182,0,338.4658130998723,,5,338.44897249992937,338.4658130998723,338.4658130998723,0.028442699927836657,339.46750340005383,339.7719605998136,[0.1574074074074074],[0.3414351851851852],[1],[0],[0],[1.3221646999008954],['Target'],3,003,2024-10-10_21h32.03.772,Visual Search Task,2024.2.1post4,60.04549041847582,2024-10-10 21h32.17.720214 +0530,
183,0,183,[0.003472222222222222],[0.4710648148148148],[1],[0],[0],[2.024413200095296],['Target'],183,0,183,0,339.8156421999447,,5,339.79407470021397,339.8156421999447,339.8156421999447,0.02184360008686781,340.817236199975,341.81924130022526,[0.003472222222222222],[0.4710648148148148],[1],[0],[0],[2.024413200095296],['Target'],3,003,2024-10-10_21h32.03.772,Visual Search Task,2024.2.1post4,60.04549041847582,2024-10-10 21h32.17.720214 +0530,
184,0,184,[0.22453703703703703],[-0.46064814814814814],[1],[0],[0],[1.9927201997488737],['Target'],184,0,184,0,341.86549369990826,,5,341.842600800097,341.86549369990826,341.86549369990826,0.023101100232452154,342.86695649987087,343.8361018002033,[0.22453703703703703],[-0.46064814814814814],[1],[0],[0],[1.9927201997488737],['Target'],3,003,2024-10-10_21h32.03.772,Visual Search Task,2024.2.1post4,60.04549041847582,2024-10-10 21h32.17.720214 +0530,
185,0,185,[-0.41550925925925924],[0.19560185185185186],[1],[0],[0],[1.809388400055468],['Target'],185,0,185,0,343.88233479997143,,5,343.85946650011465,343.88233479997143,343.88233479997143,0.023107800167053938,344.8840411999263,345.66964730015025,[-0.41550925925925924],[0.19560185185185186],[1],[0],[0],[1.809388400055468],['Target'],3,003,2024-10-10_21h32.03.772,Visual Search Task,2024.2.1post4,60.04549041847582,2024-10-10 21h32.17.720214 +0530,
186,0,186,[0.0],[-0.45023148148148145],[1],[0],[0],[2.112071800045669],['Target'],186,0,186,0,345.7323710001074,,10,345.7065244000405,345.7323710001074,345.7323710001074,0.0366348996758461,346.73381209978834,347.81939860014245,[0.0],[-0.45023148148148145],[1],[0],[0],[2.112071800045669],['Target'],3,003,2024-10-10_21h32.03.772,Visual Search Task,2024.2.1post4,60.04549041847582,2024-10-10 21h32.17.720214 +0530,
187,0,187,[-0.26157407407407407],[-0.041666666666666664],[1],[0],[0],[1.2437919997610152],['Target'],187,0,187,0,347.86517090024427,,5,347.84162109997123,347.86517090024427,347.86517090024427,0.021890099626034498,348.86691279988736,349.08621589979157,[-0.26157407407407407],[-0.041666666666666664],[1],[0],[0],[1.2437919997610152],['Target'],3,003,2024-10-10_21h32.03.772,Visual Search Task,2024.2.1post4,60.04549041847582,2024-10-10 21h32.17.720214 +0530,
188,0,188,[-0.41435185185185186],[-0.19212962962962962],[1],[0],[0],[1.4877289002761245],['Target'],188,0,188,0,349.13196909986436,,5,349.1151470998302,349.13196909986436,349.13196909986436,0.02863029995933175,350.1334576001391,350.60374339995906,[-0.41435185185185186],[-0.19212962962962962],[1],[0],[0],[1.4877289002761245],['Target'],3,003,2024-10-10_21h32.03.772,Visual Search Task,2024.2.1post4,60.04549041847582,2024-10-10 21h32.17.720214 +0530,
189,0,189,[-0.1087962962962963],[-0.2881944444444444],[1],[0],[0],[1.0590711999684572],['Target'],189,0,189,0,350.64830739982426,,5,350.6257278001867,350.64830739982426,350.64830739982426,0.021708300337195396,351.6496743001044,351.68560890015215,[-0.1087962962962963],[-0.2881944444444444],[1],[0],[0],[1.0590711999684572],['Target'],3,003,2024-10-10_21h32.03.772,Visual Search Task,2024.2.1post4,60.04549041847582,2024-10-10 21h32.17.720214 +0530,
190,0,190,[0.2777777777777778],[0.3298611111111111],[1],[0],[0],[2.2611465002410114],['Target'],190,0,190,0,351.7482932000421,,10,351.7227382999845,351.7482932000421,351.7482932000421,0.03685609996318817,352.7495543998666,353.9846776998602,[0.2777777777777778],[0.3298611111111111],[1],[0],[0],[2.2611465002410114],['Target'],3,003,2024-10-10_21h32.03.772,Visual Search Task,2024.2.1post4,60.04549041847582,2024-10-10 21h32.17.720214 +0530,
191,0,191,[-0.49074074074074076],[-0.2650462962962963],[1],[0],[0],[1.8111363998614252],['Target'],191,0,191,0,354.031276400201,,5,354.0065624001436,354.031276400201,354.031276400201,0.02155259996652603,355.03263620007783,355.81850019982085,[-0.49074074074074076],[-0.2650462962962963],[1],[0],[0],[1.8111363998614252],['Target'],3,003,2024-10-10_21h32.03.772,Visual Search Task,2024.2.1post4,60.04549041847582,2024-10-10 21h32.17.720214 +0530,
192,0,192,[-0.36342592592592593],[-0.30671296296296297],[1],[0],[0],[1.0522233000956476],['Target'],192,0,192,0,355.8644802002236,,5,355.8480163998902,355.8644802002236,355.8644802002236,0.029265899676829576,356.8657638002187,356.901004999876,[-0.36342592592592593],[-0.30671296296296297],[1],[0],[0],[1.0522233000956476],['Target'],3,003,2024-10-10_21h32.03.772,Visual Search Task,2024.2.1post4,60.04549041847582,2024-10-10 21h32.17.720214 +0530,
193,0,193,[0.06597222222222222],[0.2604166666666667],[1],[0],[0],[2.0322364000603557],['Target'],193,0,193,0,356.98086989996955,,10,356.9518725001253,356.98086989996955,356.98086989996955,0.05060150008648634,357.98236559983343,358.9849288999103,[0.06597222222222222],[0.2604166666666667],[1],[0],[0],[2.0322364000603557],['Target'],3,003,2024-10-10_21h32.03.772,Visual Search Task,2024.2.1post4,60.04549041847582,2024-10-10 21h32.17.720214 +0530,
194,0,194,[0.12731481481481483],[0.0625],[1],[0],[0],[1.2766253999434412],['Target'],194,0,194,0,359.0306270001456,,5,359.0072758998722,359.0306270001456,359.0306270001456,0.021955800242722034,360.0321202999912,360.28475899994373,[0.12731481481481483],[0.0625],[1],[0],[0],[1.2766253999434412],['Target'],3,003,2024-10-10_21h32.03.772,Visual Search Task,2024.2.1post4,60.04549041847582,2024-10-10 21h32.17.720214 +0530,
195,0,195,"[0.4930555555555556, 0.48032407407407407]","[0.4548611111111111, -0.15393518518518517]","[1, 1]","[0, 0]","[0, 0]","[2.179519400000572, 4.628515799995512]","[None, 'Target']",195,0,195,0,360.34727140003815,,10,360.3199757998809,360.34727140003815,360.34727140003815,0.03495489992201328,361.34848280018196,364.94899399997666,"[0.4930555555555556, 0.48032407407407407]","[0.4548611111111111, -0.15393518518518517]","[1, 1]","[0, 0]","[0, 0]","[2.179519400000572, 4.628515799995512]","[None, 'Target']",3,003,2024-10-10_21h32.03.772,Visual Search Task,2024.2.1post4,60.04549041847582,2024-10-10 21h32.17.720214 +0530,
196,0,196,[-0.2199074074074074],[-0.3958333333333333],[1],[0],[0],[1.3012818000279367],['Target'],196,0,196,0,364.97944949986413,,5,364.9637926998548,364.97944949986413,364.97944949986413,0.014633100014179945,365.9805120998062,366.2658186000772,[-0.2199074074074074],[-0.3958333333333333],[1],[0],[0],[1.3012818000279367],['Target'],3,003,2024-10-10_21h32.03.772,Visual Search Task,2024.2.1post4,60.04549041847582,2024-10-10 21h32.17.720214 +0530,
197,0,197,[0.13425925925925927],[0.28125],[1],[0],[0],[1.5910341003909707],['Target'],197,0,197,0,366.31234750011936,,5,366.29090549983084,366.31234750011936,366.31234750011936,0.02481480035930872,367.313954600133,367.88274380005896,[0.13425925925925927],[0.28125],[1],[0],[0],[1.5910341003909707],['Target'],3,003,2024-10-10_21h32.03.772,Visual Search Task,2024.2.1post4,60.04549041847582,2024-10-10 21h32.17.720214 +0530,
198,0,198,[0.3159722222222222],[0.3958333333333333],[1],[0],[0],[2.180348599795252],['Target'],198,0,198,0,367.94559089979157,,10,367.9187929001637,367.94559089979157,367.94559089979157,0.03573239967226982,368.94703589985147,370.0999135999009,[0.3159722222222222],[0.3958333333333333],[1],[0],[0],[2.180348599795252],['Target'],3,003,2024-10-10_21h32.03.772,Visual Search Task,2024.2.1post4,60.04549041847582,2024-10-10 21h32.17.720214 +0530,
199,0,199,[0.08912037037037036],[-0.46064814814814814],[1],[0],[0],[2.3722234000451863],['Target'],199,0,199,0,370.1456917999312,,5,370.1260951999575,370.1456917999312,370.1456917999312,0.02583119971677661,371.14712330000475,372.4991378998384,[0.08912037037037036],[-0.46064814814814814],[1],[0],[0],[2.3722234000451863],['Target'],3,003,2024-10-10_21h32.03.772,Visual Search Task,2024.2.1post4,60.04549041847582,2024-10-10 21h32.17.720214 +0530,
