thisN,thisTrialN,thisRepN,mouse.x,mouse.y,mouse.leftButton,mouse.midButton,mouse.rightButton,mouse.time,mouse.clicked_name,Trials.thisRepN,Trials.thisTrialN,Trials.thisN,Trials.thisIndex,thisRow.t,notes,num_distr,trial.started,Fixation.started,Target.started,mouse.started,Fixation.stopped,trial.stopped,Trials.mouse.x,Trials.mouse.y,Trials.mouse.leftButton,Trials.mouse.midButton,Trials.mouse.rightButton,Trials.mouse.time,Trials.mouse.clicked_name,participant,session,date,expName,psychopyVersion,frameRate,expStart,
0,0,0,[-0.12037037037037036],[-0.028935185185185185],[1],[0],[0],[1.2640065997838974],['Target'],0,0,0,0,0.06736039975658059,,5,0.04076820006594062,0.06736039975658059,0.06736039975658059,0.040455800015479326,1.0683512999676168,1.305500399786979,[-0.12037037037037036],[-0.028935185185185185],[1],[0],[0],[1.2640065997838974],['Target'],4,004,2024-10-10_21h38.56.109,Visual Search Task,2024.2.1post4,60.05785974917236,2024-10-10 21h39.22.216576 +0530,
1,0,1,[-0.4201388888888889],[-0.010416666666666666],[1],[0],[0],[1.7608289001509547],['Target'],1,0,1,0,1.3666380001232028,,10,1.3418592000380158,1.3666380001232028,1.3666380001232028,0.03606319986283779,2.3677452001720667,3.1034578001126647,[-0.4201388888888889],[-0.010416666666666666],[1],[0],[0],[1.7608289001509547],['Target'],4,004,2024-10-10_21h38.56.109,Visual Search Task,2024.2.1post4,60.05785974917236,2024-10-10 21h39.22.216576 +0530,
2,0,2,[-0.125],[-0.4375],[1],[0],[0],[2.036161799915135],['Target'],2,0,2,0,3.1664422997273505,,10,3.149573099799454,3.1664422997273505,3.1664422997273505,0.04579429980367422,4.167921300046146,5.186584400013089,[-0.125],[-0.4375],[1],[0],[0],[2.036161799915135],['Target'],4,004,2024-10-10_21h38.56.109,Visual Search Task,2024.2.1post4,60.05785974917236,2024-10-10 21h39.22.216576 +0530,
3,0,3,[0.05324074074074074],[-0.4722222222222222],[1],[0],[0],[1.7874373001977801],['Target'],3,0,3,0,5.232895200140774,,5,5.2152089001610875,5.232895200140774,5.232895200140774,0.02836370002478361,6.234015100169927,7.00350569980219,[0.05324074074074074],[-0.4722222222222222],[1],[0],[0],[1.7874373001977801],['Target'],4,004,2024-10-10_21h38.56.109,Visual Search Task,2024.2.1post4,60.05785974917236,2024-10-10 21h39.22.216576 +0530,
4,0,4,[-0.003472222222222222],[0.4525462962962963],[1],[0],[0],[2.0556864999234676],['Target'],4,0,4,0,7.049074999988079,,5,7.0295214001089334,7.049074999988079,7.049074999988079,0.025760100223124027,8.050469900015742,9.086074899882078,[-0.003472222222222222],[0.4525462962962963],[1],[0],[0],[2.0556864999234676],['Target'],4,004,2024-10-10_21h38.56.109,Visual Search Task,2024.2.1post4,60.05785974917236,2024-10-10 21h39.22.216576 +0530,
5,0,5,[-0.30787037037037035],[0.4444444444444444],[1],[0],[0],[2.8640590999275446],['Target'],5,0,5,0,9.148881199769676,,10,9.123000400140882,9.148881199769676,9.148881199769676,0.03667199984192848,10.150650099851191,11.987889300100505,[-0.30787037037037035],[0.4444444444444444],[1],[0],[0],[2.8640590999275446],['Target'],4,004,2024-10-10_21h38.56.109,Visual Search Task,2024.2.1post4,60.05785974917236,2024-10-10 21h39.22.216576 +0530,
6,0,6,[-0.003472222222222222],[-0.4386574074074074],[0],[0],[1],[2.1397699997760355],['Target'],6,0,6,0,12.049051099922508,,10,12.028538099955767,12.049051099922508,12.049051099922508,0.040217400062829256,13.050746200140566,14.16906479978934,[-0.003472222222222222],[-0.4386574074074074],[0],[0],[1],[2.1397699997760355],['Target'],4,004,2024-10-10_21h38.56.109,Visual Search Task,2024.2.1post4,60.05785974917236,2024-10-10 21h39.22.216576 +0530,
7,0,7,[-0.3784722222222222],[-0.40625],[1],[0],[0],[1.5929931998252869],['Target'],7,0,7,0,14.215360600035638,,5,14.192312099970877,14.215360600035638,14.215360600035638,0.02287149988114834,15.217086299788207,15.786151499953121,[-0.3784722222222222],[-0.40625],[1],[0],[0],[1.5929931998252869],['Target'],4,004,2024-10-10_21h38.56.109,Visual Search Task,2024.2.1post4,60.05785974917236,2024-10-10 21h39.22.216576 +0530,
8,0,8,[0.1527777777777778],[-0.4444444444444444],[1],[0],[0],[1.3226304999552667],['Target'],8,0,8,0,15.831979900132865,,5,15.811773099936545,15.831979900132865,15.831979900132865,0.02506719995290041,16.833480100147426,17.135237199719995,[0.1527777777777778],[-0.4444444444444444],[1],[0],[0],[1.3226304999552667],['Target'],4,004,2024-10-10_21h38.56.109,Visual Search Task,2024.2.1post4,60.05785974917236,2024-10-10 21h39.22.216576 +0530,
9,0,9,[-0.0625],[-0.2708333333333333],[1],[0],[0],[1.2874104999937117],['Target'],9,0,9,0,17.181828499771655,,5,17.16394740017131,17.181828499771655,17.181828499771655,0.02840660000219941,18.18326549977064,18.45217219972983,[-0.0625],[-0.2708333333333333],[1],[0],[0],[1.2874104999937117],['Target'],4,004,2024-10-10_21h38.56.109,Visual Search Task,2024.2.1post4,60.05785974917236,2024-10-10 21h39.22.216576 +0530,
10,0,10,[-0.2835648148148148],[-0.10185185185185185],[1],[0],[0],[1.1088332999497652],['Target'],10,0,10,0,18.498083400074393,,5,18.47521109972149,18.498083400074393,18.498083400074393,0.02276080008596182,19.49994989996776,19.584850700106472,[-0.2835648148148148],[-0.10185185185185185],[1],[0],[0],[1.1088332999497652],['Target'],4,004,2024-10-10_21h38.56.109,Visual Search Task,2024.2.1post4,60.05785974917236,2024-10-10 21h39.22.216576 +0530,
11,0,11,[0.19675925925925927],[0.3726851851851852],[1],[0],[0],[1.8587082996964455],['Target'],11,0,11,0,19.63180339988321,,5,19.608857799787074,19.63180339988321,19.63180339988321,0.02372810011729598,20.633054899983108,21.46833619987592,[0.19675925925925927],[0.3726851851851852],[1],[0],[0],[1.8587082996964455],['Target'],4,004,2024-10-10_21h38.56.109,Visual Search Task,2024.2.1post4,60.05785974917236,2024-10-10 21h39.22.216576 +0530,
12,0,12,[0.22685185185185186],[-0.30439814814814814],[1],[0],[0],[1.9927395996637642],['Target'],12,0,12,0,21.514710600022227,,5,21.490673599764705,21.514710600022227,21.514710600022227,0.022057500202208757,22.516237100120634,23.484300899785012,[0.22685185185185186],[-0.30439814814814814],[1],[0],[0],[1.9927395996637642],['Target'],4,004,2024-10-10_21h38.56.109,Visual Search Task,2024.2.1post4,60.05785974917236,2024-10-10 21h39.22.216576 +0530,
13,0,13,[0.36342592592592593],[-0.23958333333333334],[1],[0],[0],[1.8647213000804186],['Target'],13,0,13,0,23.547639899887145,,10,23.519207099918276,23.547639899887145,23.547639899887145,0.03457609983161092,24.549474900122732,25.38479010015726,[0.36342592592592593],[-0.23958333333333334],[1],[0],[0],[1.8647213000804186],['Target'],4,004,2024-10-10_21h38.56.109,Visual Search Task,2024.2.1post4,60.05785974917236,2024-10-10 21h39.22.216576 +0530,
14,0,14,[-0.33796296296296297],[-0.019675925925925927],[1],[0],[0],[1.6530951000750065],['Target'],14,0,14,0,25.430957300122827,,5,25.413567999843508,25.430957300122827,25.430957300122827,0.02834989968687296,26.432231199927628,27.067380600143224,[-0.33796296296296297],[-0.019675925925925927],[1],[0],[0],[1.6530951000750065],['Target'],4,004,2024-10-10_21h38.56.109,Visual Search Task,2024.2.1post4,60.05785974917236,2024-10-10 21h39.22.216576 +0530,
15,0,15,[0.4074074074074074],[0.4826388888888889],[1],[0],[0],[2.9671958000399172],['Target'],15,0,15,0,27.147407500073314,,10,27.116639399901032,27.147407500073314,27.147407500073314,0.048994299955666065,28.14861680008471,30.08465649979189,[0.4074074074074074],[0.4826388888888889],[1],[0],[0],[2.9671958000399172],['Target'],4,004,2024-10-10_21h38.56.109,Visual Search Task,2024.2.1post4,60.05785974917236,2024-10-10 21h39.22.216576 +0530,
16,0,16,[-0.1550925925925926],[0.16898148148148148],[1],[0],[0],[1.2381802997551858],['Target'],16,0,16,0,30.130062100011855,,5,30.112025199923664,30.130062100011855,30.130062100011855,0.026940899901092052,31.13170549971983,31.351028100121766,[-0.1550925925925926],[0.16898148148148148],[1],[0],[0],[1.2381802997551858],['Target'],4,004,2024-10-10_21h38.56.109,Visual Search Task,2024.2.1post4,60.05785974917236,2024-10-10 21h39.22.216576 +0530,
17,0,17,[-0.37037037037037035],[0.27199074074074076],[1],[0],[0],[1.2574020000174642],['Target'],17,0,17,0,31.413636500015855,,10,31.392397299874574,31.413636500015855,31.413636500015855,0.04109739977866411,32.41482689976692,32.65051440009847,[-0.37037037037037035],[0.27199074074074076],[1],[0],[0],[1.2574020000174642],['Target'],4,004,2024-10-10_21h38.56.109,Visual Search Task,2024.2.1post4,60.05785974917236,2024-10-10 21h39.22.216576 +0530,
18,0,18,[-0.046296296296296294],[-0.16550925925925927],[1],[0],[0],[1.376903099939227],['Target'],18,0,18,0,32.71358670014888,,10,32.68962989980355,32.71358670014888,32.71358670014888,0.03878880012780428,33.714842999819666,34.06727309990674,[-0.046296296296296294],[-0.16550925925925927],[1],[0],[0],[1.376903099939227],['Target'],4,004,2024-10-10_21h38.56.109,Visual Search Task,2024.2.1post4,60.05785974917236,2024-10-10 21h39.22.216576 +0530,
19,0,19,[-0.25578703703703703],[0.018518518518518517],[1],[0],[0],[2.2103229998610914],['Target'],19,0,19,0,34.129820299800485,,10,34.10562560008839,34.129820299800485,34.129820299800485,0.03805229999125004,35.131287899799645,36.316948799882084,[-0.25578703703703703],[0.018518518518518517],[1],[0],[0],[2.2103229998610914],['Target'],4,004,2024-10-10_21h38.56.109,Visual Search Task,2024.2.1post4,60.05785974917236,2024-10-10 21h39.22.216576 +0530,
20,0,20,[-0.11574074074074074],[0.07523148148148148],[1],[0],[0],[1.2232154998928308],['Target'],20,0,20,0,36.36273519974202,,5,36.34356290008873,36.36273519974202,36.36273519974202,0.026290600188076496,37.36434260010719,37.56758589996025,[-0.11574074074074074],[0.07523148148148148],[1],[0],[0],[1.2232154998928308],['Target'],4,004,2024-10-10_21h38.56.109,Visual Search Task,2024.2.1post4,60.05785974917236,2024-10-10 21h39.22.216576 +0530,
21,0,21,[0.24537037037037038],[-0.4375],[0],[0],[1],[2.007358900271356],['Target'],21,0,21,0,37.612658199854195,,5,37.59304019995034,37.612658199854195,37.612658199854195,0.025204400066286325,38.61408179998398,39.60128910001367,[0.24537037037037038],[-0.4375],[0],[0],[1],[2.007358900271356],['Target'],4,004,2024-10-10_21h38.56.109,Visual Search Task,2024.2.1post4,60.05785974917236,2024-10-10 21h39.22.216576 +0530,
22,0,22,[0.34953703703703703],[-0.004629629629629629],[1],[0],[0],[1.9716644999571145],['Target'],22,0,22,0,39.66233049985021,,10,39.64337670011446,39.66233049985021,39.66233049985021,0.04182090004906058,40.66388919996098,41.615805299952626,[0.34953703703703703],[-0.004629629629629629],[1],[0],[0],[1.9716644999571145],['Target'],4,004,2024-10-10_21h38.56.109,Visual Search Task,2024.2.1post4,60.05785974917236,2024-10-10 21h39.22.216576 +0530,
23,0,23,[0.24189814814814814],[-0.39699074074074076],[1],[0],[0],[1.6617923001758754],['Target'],23,0,23,0,41.678986500017345,,10,41.65277909999713,41.678986500017345,41.678986500017345,0.0365794999524951,42.68034579977393,43.315355400089175,[0.24189814814814814],[-0.39699074074074076],[1],[0],[0],[1.6617923001758754],['Target'],4,004,2024-10-10_21h38.56.109,Visual Search Task,2024.2.1post4,60.05785974917236,2024-10-10 21h39.22.216576 +0530,
24,0,24,[-0.4027777777777778],[0.39814814814814814],[1],[0],[0],[2.1050717998296022],['Target'],24,0,24,0,43.37850569980219,,10,43.359477899968624,43.37850569980219,43.37850569980219,0.04378239996731281,44.38006559992209,45.46524540008977,[-0.4027777777777778],[0.39814814814814814],[1],[0],[0],[2.1050717998296022],['Target'],4,004,2024-10-10_21h38.56.109,Visual Search Task,2024.2.1post4,60.05785974917236,2024-10-10 21h39.22.216576 +0530,
25,0,25,[-0.16898148148148148],[0.33912037037037035],[1],[0],[0],[0.9366187998093665],['Target'],25,0,25,0,45.51123029971495,,10,45.49421009980142,45.51123029971495,45.51123029971495,0.028701600152999163,,46.43141279974952,[-0.16898148148148148],[0.33912037037037035],[1],[0],[0],[0.9366187998093665],['Target'],4,004,2024-10-10_21h38.56.109,Visual Search Task,2024.2.1post4,60.05785974917236,2024-10-10 21h39.22.216576 +0530,
26,0,26,[-0.3854166666666667],[0.2222222222222222],[1],[0],[0],[1.0768285002559423],['Target'],26,0,26,0,46.47799779986963,,5,46.453785699792206,46.47799779986963,46.47799779986963,0.022255500312894583,47.479542799759656,47.53145169978961,[-0.3854166666666667],[0.2222222222222222],[1],[0],[0],[1.0768285002559423],['Target'],4,004,2024-10-10_21h38.56.109,Visual Search Task,2024.2.1post4,60.05785974917236,2024-10-10 21h39.22.216576 +0530,
27,0,27,[-0.42939814814814814],[0.3113425925925926],[1],[0],[0],[0.7089474997483194],['Target'],27,0,27,0,47.578076200094074,,5,47.556253999937326,47.578076200094074,47.578076200094074,0.024449999909847975,,48.26605430012569,[-0.42939814814814814],[0.3113425925925926],[1],[0],[0],[0.7089474997483194],['Target'],4,004,2024-10-10_21h38.56.109,Visual Search Task,2024.2.1post4,60.05785974917236,2024-10-10 21h39.22.216576 +0530,
28,0,28,[0.38657407407407407],[-0.010416666666666666],[1],[0],[0],[1.6282215998508036],['Target'],28,0,28,0,48.328051399905235,,10,48.302873000036925,48.328051399905235,48.328051399905235,0.036267099902033806,49.32954730000347,49.93196710012853,[0.38657407407407407],[-0.010416666666666666],[1],[0],[0],[1.6282215998508036],['Target'],4,004,2024-10-10_21h38.56.109,Visual Search Task,2024.2.1post4,60.05785974917236,2024-10-10 21h39.22.216576 +0530,
29,0,29,[-0.3923611111111111],[0.06365740740740741],[1],[0],[0],[1.126504599582404],['Target'],29,0,29,0,49.994493700098246,,10,49.97257879981771,49.994493700098246,49.994493700098246,0.04025469999760389,50.99628419987857,51.099846099969,[-0.3923611111111111],[0.06365740740740741],[1],[0],[0],[1.126504599582404],['Target'],4,004,2024-10-10_21h38.56.109,Visual Search Task,2024.2.1post4,60.05785974917236,2024-10-10 21h39.22.216576 +0530,
30,0,30,[0.13541666666666666],[-0.4664351851851852],[1],[0],[0],[1.5693346997722983],['Target'],30,0,30,0,51.14407149981707,,5,51.12712429976091,51.14407149981707,51.14407149981707,0.02695650001987815,52.14504850003868,52.697404199745506,[0.13541666666666666],[-0.4664351851851852],[1],[0],[0],[1.5693346997722983],['Target'],4,004,2024-10-10_21h38.56.109,Visual Search Task,2024.2.1post4,60.05785974917236,2024-10-10 21h39.22.216576 +0530,
31,0,31,[0.2673611111111111],[-0.17708333333333334],[1],[0],[0],[1.0739305997267365],['Target'],31,0,31,0,52.74323369981721,,5,52.72222949983552,52.74323369981721,52.74323369981721,0.024578699842095375,53.74473899975419,53.79711939999834,[0.2673611111111111],[-0.17708333333333334],[1],[0],[0],[1.0739305997267365],['Target'],4,004,2024-10-10_21h38.56.109,Visual Search Task,2024.2.1post4,60.05785974917236,2024-10-10 21h39.22.216576 +0530,
32,0,32,[-0.005787037037037037],[-0.11226851851851852],[1],[0],[0],[0.8601549998857081],['Target'],32,0,32,0,53.84310910012573,,5,53.81963729998097,53.84310910012573,53.84310910012573,0.022235100157558918,,54.680532100144774,[-0.005787037037037037],[-0.11226851851851852],[1],[0],[0],[0.8601549998857081],['Target'],4,004,2024-10-10_21h38.56.109,Visual Search Task,2024.2.1post4,60.05785974917236,2024-10-10 21h39.22.216576 +0530,
33,0,33,[0.10300925925925926],[-0.1261574074074074],[1],[0],[0],[0.9256237996742129],['Target'],33,0,33,0,54.743089499883354,,10,54.72035019984469,54.743089499883354,54.743089499883354,0.03954969998449087,,55.646985199768096,[0.10300925925925926],[-0.1261574074074074],[1],[0],[0],[0.9256237996742129],['Target'],4,004,2024-10-10_21h38.56.109,Visual Search Task,2024.2.1post4,60.05785974917236,2024-10-10 21h39.22.216576 +0530,
34,0,34,[0.10300925925925926],[-0.1261574074074074],[1],[0],[0],[0.5579665997065604],['Target'],34,0,34,0,55.7096540001221,,10,55.68795790011063,55.7096540001221,55.7096540001221,0.04058740008622408,,56.24678839975968,[0.10300925925925926],[-0.1261574074074074],[1],[0],[0],[0.5579665997065604],['Target'],4,004,2024-10-10_21h38.56.109,Visual Search Task,2024.2.1post4,60.05785974917236,2024-10-10 21h39.22.216576 +0530,
35,0,35,[0.21296296296296297],[-0.25],[1],[0],[0],[1.3746311999857426],['Target'],35,0,35,0,56.30985890002921,,10,56.28777729999274,56.30985890002921,56.30985890002921,0.040701199788600206,57.31123760016635,57.66322979982942,[0.21296296296296297],[-0.25],[1],[0],[0],[1.3746311999857426],['Target'],4,004,2024-10-10_21h38.56.109,Visual Search Task,2024.2.1post4,60.05785974917236,2024-10-10 21h39.22.216576 +0530,
36,0,36,[0.4409722222222222],[0.44328703703703703],[1],[0],[0],[2.099524499848485],['Target'],36,0,36,0,57.72590629989281,,10,57.696157299913466,57.72590629989281,57.72590629989281,0.032584700267761946,58.727304599713534,59.79646690003574,[0.4409722222222222],[0.44328703703703703],[1],[0],[0],[2.099524499848485],['Target'],4,004,2024-10-10_21h38.56.109,Visual Search Task,2024.2.1post4,60.05785974917236,2024-10-10 21h39.22.216576 +0530,
37,0,37,[-0.3113425925925926],[0.16319444444444445],[1],[0],[0],[1.25261709978804],['Target'],37,0,37,0,59.85884469980374,,10,59.843015499878675,59.85884469980374,59.85884469980374,0.04622030025348067,60.86068140016869,61.09642359986901,[-0.3113425925925926],[0.16319444444444445],[1],[0],[0],[1.25261709978804],['Target'],4,004,2024-10-10_21h38.56.109,Visual Search Task,2024.2.1post4,60.05785974917236,2024-10-10 21h39.22.216576 +0530,
38,0,38,[0.2326388888888889],[-0.37037037037037035],[1],[0],[0],[1.4149797996506095],['Target'],38,0,38,0,61.12579490011558,,5,61.11550740012899,61.12579490011558,61.12579490011558,0.018755400087684393,62.12744399998337,62.53126160008833,[0.2326388888888889],[-0.37037037037037035],[1],[0],[0],[1.4149797996506095],['Target'],4,004,2024-10-10_21h38.56.109,Visual Search Task,2024.2.1post4,60.05785974917236,2024-10-10 21h39.22.216576 +0530,
39,0,39,[0.3275462962962963],[-0.2662037037037037],[1],[0],[0],[1.1385587002150714],['Target'],39,0,39,0,62.5757657000795,,5,62.55817320011556,62.5757657000795,62.5757657000795,0.02665669983252883,63.5773442001082,63.6976502998732,[0.3275462962962963],[-0.2662037037037037],[1],[0],[0],[1.1385587002150714],['Target'],4,004,2024-10-10_21h38.56.109,Visual Search Task,2024.2.1post4,60.05785974917236,2024-10-10 21h39.22.216576 +0530,
40,0,40,[-0.3715277777777778],[0.1412037037037037],[1],[0],[0],[0.9015905000269413],['Target'],40,0,40,0,63.758888099808246,,10,63.74398049991578,63.758888099808246,63.758888099808246,0.046056299936026335,,64.64635659987107,[-0.3715277777777778],[0.1412037037037037],[1],[0],[0],[0.9015905000269413],['Target'],4,004,2024-10-10_21h38.56.109,Visual Search Task,2024.2.1post4,60.05785974917236,2024-10-10 21h39.22.216576 +0530,
41,0,41,[-0.45949074074074076],[0.05439814814814815],[1],[0],[0],[1.5327058001421392],['Target'],41,0,41,0,64.70912060001865,,10,64.67956579988822,64.70912060001865,64.70912060001865,0.032886600121855736,65.71068789996207,66.21304519986734,[-0.45949074074074076],[0.05439814814814815],[1],[0],[0],[1.5327058001421392],['Target'],4,004,2024-10-10_21h38.56.109,Visual Search Task,2024.2.1post4,60.05785974917236,2024-10-10 21h39.22.216576 +0530,
42,0,42,"[0.08101851851851852, 0.12962962962962962]","[-0.48032407407407407, 0.08564814814814815]","[1, 1]","[0, 0]","[0, 0]","[2.0492682000622153, 3.329696699976921]","[None, 'Target']",42,0,42,0,66.2754186000675,,10,66.24787069996819,66.2754186000675,66.2754186000675,0.03450250020250678,67.27718150010332,69.57823430001736,"[0.08101851851851852, 0.12962962962962962]","[-0.48032407407407407, 0.08564814814814815]","[1, 1]","[0, 0]","[0, 0]","[2.0492682000622153, 3.329696699976921]","[None, 'Target']",4,004,2024-10-10_21h38.56.109,Visual Search Task,2024.2.1post4,60.05785974917236,2024-10-10 21h39.22.216576 +0530,
43,0,43,"[0.07407407407407407, 0.1111111111111111]","[0.4224537037037037, 0.4363425925925926]","[1, 1]","[0, 0]","[0, 0]","[1.14936270006001, 2.4822750999592245]","[None, 'Target']",43,0,43,0,69.64201400009915,,10,69.61196159990504,69.64201400009915,69.64201400009915,0.033430700190365314,70.64346659975126,72.09504659986123,"[0.07407407407407407, 0.1111111111111111]","[0.4224537037037037, 0.4363425925925926]","[1, 1]","[0, 0]","[0, 0]","[1.14936270006001, 2.4822750999592245]","[None, 'Target']",4,004,2024-10-10_21h38.56.109,Visual Search Task,2024.2.1post4,60.05785974917236,2024-10-10 21h39.22.216576 +0530,
44,0,44,[0.46064814814814814],[0.45601851851851855],[1],[0],[0],[3.1457714000716805],['Target'],44,0,44,0,72.15826199995354,,10,72.13183119986206,72.15826199995354,72.15826199995354,0.03637909982353449,73.15926069999114,75.27841089991853,[0.46064814814814814],[0.45601851851851855],[1],[0],[0],[3.1457714000716805],['Target'],4,004,2024-10-10_21h38.56.109,Visual Search Task,2024.2.1post4,60.05785974917236,2024-10-10 21h39.22.216576 +0530,
45,0,45,[-0.4652777777777778],[-0.24074074074074073],[1],[0],[0],[2.1147501999512315],['Target'],45,0,45,0,75.34046859992668,,10,75.31251029996201,75.34046859992668,75.34046859992668,0.03376490017399192,76.34197139972821,77.42806269973516,[-0.4652777777777778],[-0.24074074074074073],[1],[0],[0],[2.1147501999512315],['Target'],4,004,2024-10-10_21h38.56.109,Visual Search Task,2024.2.1post4,60.05785974917236,2024-10-10 21h39.22.216576 +0530,
46,0,46,[-0.2650462962962963],[0.3645833333333333],[1],[0],[0],[2.6397052998654544],['Target'],46,0,46,0,77.4736791998148,,5,77.45497709978372,77.4736791998148,77.4736791998148,0.02651350013911724,78.47506819991395,80.09548369981349,[-0.2650462962962963],[0.3645833333333333],[1],[0],[0],[2.6397052998654544],['Target'],4,004,2024-10-10_21h38.56.109,Visual Search Task,2024.2.1post4,60.05785974917236,2024-10-10 21h39.22.216576 +0530,
47,0,47,[0.3020833333333333],[-0.010416666666666666],[1],[0],[0],[1.3560874997638166],['Target'],47,0,47,0,80.13983729993924,,5,80.1206530998461,80.13983729993924,80.13983729993924,0.024938599672168493,81.14182659983635,81.47775459988043,[0.3020833333333333],[-0.010416666666666666],[1],[0],[0],[1.3560874997638166],['Target'],4,004,2024-10-10_21h38.56.109,Visual Search Task,2024.2.1post4,60.05785974917236,2024-10-10 21h39.22.216576 +0530,
48,0,48,[-0.034722222222222224],[0.39699074074074076],[1],[0],[0],[0.9386051003821194],['Target'],48,0,48,0,81.52298069978133,,5,81.50474919984117,81.52298069978133,81.52298069978133,0.02675030007958412,,82.44421319989488,[-0.034722222222222224],[0.39699074074074076],[1],[0],[0],[0.9386051003821194],['Target'],4,004,2024-10-10_21h38.56.109,Visual Search Task,2024.2.1post4,60.05785974917236,2024-10-10 21h39.22.216576 +0530,
49,0,49,[0.25],[0.06597222222222222],[1],[0],[0],[0.959602499846369],['Target'],49,0,49,0,82.48980889981613,,5,82.46667130012065,82.48980889981613,82.48980889981613,0.022197399754077196,,83.42697210004553,[0.25],[0.06597222222222222],[1],[0],[0],[0.959602499846369],['Target'],4,004,2024-10-10_21h38.56.109,Visual Search Task,2024.2.1post4,60.05785974917236,2024-10-10 21h39.22.216576 +0530,
50,0,50,[0.20601851851851852],[-0.0798611111111111],[1],[0],[0],[1.187610600143671],['Target'],50,0,50,0,83.47303069988266,,5,83.45546740014106,83.47303069988266,83.47303069988266,0.028275399934500456,84.47474029986188,84.64387509971857,[0.20601851851851852],[-0.0798611111111111],[1],[0],[0],[1.187610600143671],['Target'],4,004,2024-10-10_21h38.56.109,Visual Search Task,2024.2.1post4,60.05785974917236,2024-10-10 21h39.22.216576 +0530,
51,0,51,[-0.3368055555555556],[0.41782407407407407],[1],[0],[0],[1.2291669002734125],['Target'],51,0,51,0,84.70675189979374,,10,84.67986809974536,84.70675189979374,84.70675189979374,0.03570110024884343,85.70822730008513,85.9097814001143,[-0.3368055555555556],[0.41782407407407407],[1],[0],[0],[1.2291669002734125],['Target'],4,004,2024-10-10_21h38.56.109,Visual Search Task,2024.2.1post4,60.05785974917236,2024-10-10 21h39.22.216576 +0530,
52,0,52,[-0.32407407407407407],[-0.14930555555555555],[1],[0],[0],[1.4335112003609538],['Target'],52,0,52,0,85.95627170009539,,10,85.94236329989508,85.95627170009539,85.95627170009539,0.03221919992938638,86.95803399989381,87.37665909994394,[-0.32407407407407407],[-0.14930555555555555],[1],[0],[0],[1.4335112003609538],['Target'],4,004,2024-10-10_21h38.56.109,Visual Search Task,2024.2.1post4,60.05785974917236,2024-10-10 21h39.22.216576 +0530,
53,0,53,[0.0625],[0.3125],[1],[0],[0],[2.812061999924481],['Target'],53,0,53,0,87.43972999975085,,10,87.41365419980139,87.43972999975085,87.43972999975085,0.03666160022839904,88.44029169995338,90.22646480007097,[0.0625],[0.3125],[1],[0],[0],[2.812061999924481],['Target'],4,004,2024-10-10_21h38.56.109,Visual Search Task,2024.2.1post4,60.05785974917236,2024-10-10 21h39.22.216576 +0530,
54,0,54,[-0.3148148148148148],[-0.4537037037037037],[1],[0],[0],[2.063407300040126],['Target'],54,0,54,0,90.28863919992,,10,90.26121470006183,90.28863919992,90.28863919992,0.0344326002523303,91.29028820013627,92.32543009985238,[-0.3148148148148148],[-0.4537037037037037],[1],[0],[0],[2.063407300040126],['Target'],4,004,2024-10-10_21h38.56.109,Visual Search Task,2024.2.1post4,60.05785974917236,2024-10-10 21h39.22.216576 +0530,
55,0,55,[0.2916666666666667],[-0.2349537037037037],[1],[0],[0],[1.8626423999667168],['Target'],55,0,55,0,92.38855119980872,,10,92.36190589983016,92.38855119980872,92.38855119980872,0.036144900135695934,93.39010469987988,94.2253487999551,[0.2916666666666667],[-0.2349537037037037],[1],[0],[0],[1.8626423999667168],['Target'],4,004,2024-10-10_21h38.56.109,Visual Search Task,2024.2.1post4,60.05785974917236,2024-10-10 21h39.22.216576 +0530,
56,0,56,[0.33217592592592593],[-0.1550925925925926],[1],[0],[0],[2.1228101002052426],['Target'],56,0,56,0,94.28842969983816,,10,94.26846469985321,94.28842969983816,94.28842969983816,0.04280330007895827,95.29049189994112,96.39209329988807,[0.33217592592592593],[-0.1550925925925926],[1],[0],[0],[2.1228101002052426],['Target'],4,004,2024-10-10_21h38.56.109,Visual Search Task,2024.2.1post4,60.05785974917236,2024-10-10 21h39.22.216576 +0530,
57,0,57,[0.2974537037037037],[-0.4097222222222222],[1],[0],[0],[1.5654708999209106],['Target'],57,0,57,0,96.45528130000457,,10,96.42893739975989,96.45528130000457,96.45528130000457,0.03646539989858866,97.45680089993402,97.99519710009918,[0.2974537037037037],[-0.4097222222222222],[1],[0],[0],[1.5654708999209106],['Target'],4,004,2024-10-10_21h38.56.109,Visual Search Task,2024.2.1post4,60.05785974917236,2024-10-10 21h39.22.216576 +0530,
58,0,58,[0.41435185185185186],[0.4710648148148148],[1],[0],[0],[1.573969000019133],['Target'],58,0,58,0,98.05502629978582,,10,98.03565520001575,98.05502629978582,98.05502629978582,0.040167500264942646,99.05639709997922,99.61039629997686,[0.41435185185185186],[0.4710648148148148],[1],[0],[0],[1.573969000019133],['Target'],4,004,2024-10-10_21h38.56.109,Visual Search Task,2024.2.1post4,60.05785974917236,2024-10-10 21h39.22.216576 +0530,
59,0,59,[-0.44212962962962965],[-0.46412037037037035],[1],[0],[0],[2.470859299879521],['Target'],59,0,59,0,99.6548071000725,,5,99.63687169970945,99.6548071000725,99.6548071000725,0.026171899866312742,100.65628609992564,102.10861960006878,[-0.44212962962962965],[-0.46412037037037035],[1],[0],[0],[2.470859299879521],['Target'],4,004,2024-10-10_21h38.56.109,Visual Search Task,2024.2.1post4,60.05785974917236,2024-10-10 21h39.22.216576 +0530,
60,0,60,[0.15393518518518517],[-0.12037037037037036],[1],[0],[0],[1.4962148000486195],['Target'],60,0,60,0,102.17122599994764,,10,102.14500939985737,102.17122599994764,102.17122599994764,0.03613039990887046,103.17262519989163,103.64199719997123,[0.15393518518518517],[-0.12037037037037036],[1],[0],[0],[1.4962148000486195],['Target'],4,004,2024-10-10_21h38.56.109,Visual Search Task,2024.2.1post4,60.05785974917236,2024-10-10 21h39.22.216576 +0530,
61,0,61,[0.018518518518518517],[-0.06944444444444445],[1],[0],[0],[0.8089417000301182],['Target'],61,0,61,0,103.68767100013793,,5,103.66491359984502,103.68767100013793,103.68767100013793,0.022594899870455265,,104.47468509990722,[0.018518518518518517],[-0.06944444444444445],[1],[0],[0],[0.8089417000301182],['Target'],4,004,2024-10-10_21h38.56.109,Visual Search Task,2024.2.1post4,60.05785974917236,2024-10-10 21h39.22.216576 +0530,
62,0,62,"[0.25, 0.1701388888888889]","[-0.46875, -0.11689814814814815]","[1, 1]","[0, 0]","[0, 0]","[3.5537489000707865, 6.070118200033903]","[None, 'Target']",62,0,62,0,104.53744769981131,,10,104.5186997000128,104.53744769981131,104.53744769981131,0.04377479990944266,105.5389713998884,110.59026680001989,"[0.25, 0.1701388888888889]","[-0.46875, -0.11689814814814815]","[1, 1]","[0, 0]","[0, 0]","[3.5537489000707865, 6.070118200033903]","[None, 'Target']",4,004,2024-10-10_21h38.56.109,Visual Search Task,2024.2.1post4,60.05785974917236,2024-10-10 21h39.22.216576 +0530,
63,0,63,[-0.4652777777777778],[-0.33912037037037035],[1],[0],[0],[1.6430714996531606],['Target'],63,0,63,0,110.68645290005952,,10,110.66338249994442,110.68645290005952,110.68645290005952,0.07142920000478625,111.68835490010679,112.30719240009785,[-0.4652777777777778],[-0.33912037037037035],[1],[0],[0],[1.6430714996531606],['Target'],4,004,2024-10-10_21h38.56.109,Visual Search Task,2024.2.1post4,60.05785974917236,2024-10-10 21h39.22.216576 +0530,
64,0,64,[0.26273148148148145],[0.22453703703703703],[1],[0],[0],[1.566496199928224],['Target'],64,0,64,0,112.36949359998107,,10,112.35544049972668,112.36949359998107,112.36949359998107,0.047942900098860264,113.37054609972984,113.92278859997168,[0.26273148148148145],[0.22453703703703703],[1],[0],[0],[1.566496199928224],['Target'],4,004,2024-10-10_21h38.56.109,Visual Search Task,2024.2.1post4,60.05785974917236,2024-10-10 21h39.22.216576 +0530,
65,0,65,[0.03356481481481482],[-0.037037037037037035],[1],[0],[0],[1.4148511001840234],['Target'],65,0,65,0,113.98561660014093,,10,113.95733489980921,113.98561660014093,113.98561660014093,0.03420380037277937,114.98692309996113,115.37293369974941,[0.03356481481481482],[-0.037037037037037035],[1],[0],[0],[1.4148511001840234],['Target'],4,004,2024-10-10_21h38.56.109,Visual Search Task,2024.2.1post4,60.05785974917236,2024-10-10 21h39.22.216576 +0530,
66,0,66,[0.36689814814814814],[-0.09837962962962964],[1],[0],[0],[1.2592960000038147],['Target'],66,0,66,0,115.41884559998289,,5,115.39648110000417,115.41884559998289,115.41884559998289,0.02320619998499751,116.42035809997469,116.65665460005403,[0.36689814814814814],[-0.09837962962962964],[1],[0],[0],[1.2592960000038147],['Target'],4,004,2024-10-10_21h38.56.109,Visual Search Task,2024.2.1post4,60.05785974917236,2024-10-10 21h39.22.216576 +0530,
67,0,67,[-0.09490740740740741],[0.25925925925925924],[1],[0],[0],[1.1446457002311945],['Target'],67,0,67,0,116.70189670007676,,5,116.67942490009591,116.70189670007676,116.70189670007676,0.022533699870109558,117.7033585999161,117.82484799996018,[-0.09490740740740741],[0.25925925925925924],[1],[0],[0],[1.1446457002311945],['Target'],4,004,2024-10-10_21h38.56.109,Visual Search Task,2024.2.1post4,60.05785974917236,2024-10-10 21h39.22.216576 +0530,
68,0,68,[0.07175925925925926],[0.0775462962962963],[1],[0],[0],[1.2961540003307164],['Target'],68,0,68,0,117.88537879986688,,10,117.85887289978564,117.88537879986688,117.88537879986688,0.033614799845963717,118.88640479976311,119.15572059992701,[0.07175925925925926],[0.0775462962962963],[1],[0],[0],[1.2961540003307164],['Target'],4,004,2024-10-10_21h38.56.109,Visual Search Task,2024.2.1post4,60.05785974917236,2024-10-10 21h39.22.216576 +0530,
69,0,69,[0.40625],[0.3287037037037037],[1],[0],[0],[1.2969002998434007],['Target'],69,0,69,0,119.21821710001677,,10,119.19162889989093,119.21821710001677,119.21821710001677,0.03558810008689761,120.21984779974446,120.4893203000538,[0.40625],[0.3287037037037037],[1],[0],[0],[1.2969002998434007],['Target'],4,004,2024-10-10_21h38.56.109,Visual Search Task,2024.2.1post4,60.05785974917236,2024-10-10 21h39.22.216576 +0530,
70,0,70,[0.42939814814814814],[0.028935185185185185],[1],[0],[0],[1.6409029001370072],['Target'],70,0,70,0,120.53480019979179,,5,120.51376240001991,120.53480019979179,120.53480019979179,0.024128700140863657,121.53644290007651,122.15548299998045,[0.42939814814814814],[0.028935185185185185],[1],[0],[0],[1.6409029001370072],['Target'],4,004,2024-10-10_21h38.56.109,Visual Search Task,2024.2.1post4,60.05785974917236,2024-10-10 21h39.22.216576 +0530,
71,0,71,[-0.44675925925925924],[0.4722222222222222],[1],[0],[0],[2.462484000250697],['Target'],71,0,71,0,122.21784499986097,,10,122.19168199971318,122.21784499986097,122.21784499986097,0.03594370000064373,123.21969449985772,124.65487299999222,[-0.44675925925925924],[0.4722222222222222],[1],[0],[0],[2.462484000250697],['Target'],4,004,2024-10-10_21h38.56.109,Visual Search Task,2024.2.1post4,60.05785974917236,2024-10-10 21h39.22.216576 +0530,
72,0,72,[0.04398148148148148],[0.05092592592592592],[1],[0],[0],[1.78119260026142],['Target'],72,0,72,0,124.68417969997972,,5,124.67265459988266,124.68417969997972,124.68417969997972,0.017499299719929695,125.68551260000095,126.454640599899,[0.04398148148148148],[0.05092592592592592],[1],[0],[0],[1.78119260026142],['Target'],4,004,2024-10-10_21h38.56.109,Visual Search Task,2024.2.1post4,60.05785974917236,2024-10-10 21h39.22.216576 +0530,
73,0,73,[0.27314814814814814],[-0.05439814814814815],[1],[0],[0],[1.7247552000917494],['Target'],73,0,73,0,126.51744809979573,,10,126.49426240008324,126.51744809979573,126.51744809979573,0.039364700205624104,127.51879520015791,128.2195871998556,[0.27314814814814814],[-0.05439814814814815],[1],[0],[0],[1.7247552000917494],['Target'],4,004,2024-10-10_21h38.56.109,Visual Search Task,2024.2.1post4,60.05785974917236,2024-10-10 21h39.22.216576 +0530,
74,0,74,[0.017361111111111112],[0.09722222222222222],[1],[0],[0],[1.2087972997687757],['Target'],74,0,74,0,128.26726699993014,,10,128.24609699985012,128.26726699993014,128.26726699993014,0.026323600206524134,129.2685958999209,129.45564700011164,[0.017361111111111112],[0.09722222222222222],[1],[0],[0],[1.2087972997687757],['Target'],4,004,2024-10-10_21h38.56.109,Visual Search Task,2024.2.1post4,60.05785974917236,2024-10-10 21h39.22.216576 +0530,
75,0,75,[0.1423611111111111],[-0.38657407407407407],[1],[0],[0],[1.4268873003311455],['Target'],75,0,75,0,129.50026219990104,,5,129.47653590003029,129.50026219990104,129.50026219990104,0.02056810026988387,130.50200420012698,130.90416890010238,[0.1423611111111111],[-0.38657407407407407],[1],[0],[0],[1.4268873003311455],['Target'],4,004,2024-10-10_21h38.56.109,Visual Search Task,2024.2.1post4,60.05785974917236,2024-10-10 21h39.22.216576 +0530,
76,0,76,[-0.3090277777777778],[-0.2048611111111111],[1],[0],[0],[1.2432217001914978],['Target'],76,0,76,0,130.950105200056,,5,130.92595179984346,130.950105200056,130.950105200056,0.02145739970728755,131.9514605998993,132.16998190013692,[-0.3090277777777778],[-0.2048611111111111],[1],[0],[0],[1.2432217001914978],['Target'],4,004,2024-10-10_21h38.56.109,Visual Search Task,2024.2.1post4,60.05785974917236,2024-10-10 21h39.22.216576 +0530,
77,0,77,[-0.29398148148148145],[0.4664351851851852],[1],[0],[0],[2.5925934999249876],['Target'],77,0,77,0,132.21664479980245,,5,132.19336300017312,132.21664479980245,132.21664479980245,0.023117899894714355,133.2182428999804,134.78676729975268,[-0.29398148148148145],[0.4664351851851852],[1],[0],[0],[2.5925934999249876],['Target'],4,004,2024-10-10_21h38.56.109,Visual Search Task,2024.2.1post4,60.05785974917236,2024-10-10 21h39.22.216576 +0530,
78,0,78,"[0.36226851851851855, 0.3368055555555556]","[0.14699074074074073, 0.1597222222222222]","[1, 1]","[0, 0]","[0, 0]","[1.5409645000472665, 2.4403253998607397]","[None, 'Target']",78,0,78,0,134.83321389975026,,5,134.81270779995248,134.83321389975026,134.83321389975026,0.025694299954921007,135.83495689975098,137.25391890015453,"[0.36226851851851855, 0.3368055555555556]","[0.14699074074074073, 0.1597222222222222]","[1, 1]","[0, 0]","[0, 0]","[1.5409645000472665, 2.4403253998607397]","[None, 'Target']",4,004,2024-10-10_21h38.56.109,Visual Search Task,2024.2.1post4,60.05785974917236,2024-10-10 21h39.22.216576 +0530,
79,0,79,[-0.1863425925925926],[0.39814814814814814],[1],[0],[0],[1.9629263998940587],['Target'],79,0,79,0,137.31660330016166,,10,137.29108450002968,137.31660330016166,137.31660330016166,0.03678049985319376,138.31820320012048,139.25473839975893,[-0.1863425925925926],[0.39814814814814814],[1],[0],[0],[1.9629263998940587],['Target'],4,004,2024-10-10_21h38.56.109,Visual Search Task,2024.2.1post4,60.05785974917236,2024-10-10 21h39.22.216576 +0530,
80,0,80,[-0.12268518518518519],[0.03819444444444445],[1],[0],[0],[1.2607288002036512],['Target'],80,0,80,0,139.31660210015252,,10,139.29156380007043,139.31660210015252,139.31660210015252,0.0364312999881804,140.31810919987038,140.55319309979677,[-0.12268518518518519],[0.03819444444444445],[1],[0],[0],[1.2607288002036512],['Target'],4,004,2024-10-10_21h38.56.109,Visual Search Task,2024.2.1post4,60.05785974917236,2024-10-10 21h39.22.216576 +0530,
81,0,81,[0.35300925925925924],[-0.1701388888888889],[1],[0],[0],[1.5866979998536408],['Target'],81,0,81,0,140.599422799889,,5,140.58204599982128,140.599422799889,140.599422799889,0.028349299915134907,141.60150740016252,142.1695655998774,[0.35300925925925924],[-0.1701388888888889],[1],[0],[0],[1.5866979998536408],['Target'],4,004,2024-10-10_21h38.56.109,Visual Search Task,2024.2.1post4,60.05785974917236,2024-10-10 21h39.22.216576 +0530,
82,0,82,[-0.13078703703703703],[-0.33101851851851855],[1],[0],[0],[1.6570458998903632],['Target'],82,0,82,0,142.23274399992079,,10,142.2116411998868,142.23274399992079,142.23274399992079,0.041823800187557936,143.23424699995667,143.86946879979223,[-0.13078703703703703],[-0.33101851851851855],[1],[0],[0],[1.6570458998903632],['Target'],4,004,2024-10-10_21h38.56.109,Visual Search Task,2024.2.1post4,60.05785974917236,2024-10-10 21h39.22.216576 +0530,
83,0,83,[-0.34837962962962965],[-0.10300925925925926],[1],[0],[0],[1.3790213000029325],['Target'],83,0,83,0,143.91577189974487,,5,143.8897812999785,143.91577189974487,143.91577189974487,0.019942100159823895,144.91747009987012,145.26958849979565,[-0.34837962962962965],[-0.10300925925925926],[1],[0],[0],[1.3790213000029325],['Target'],4,004,2024-10-10_21h38.56.109,Visual Search Task,2024.2.1post4,60.05785974917236,2024-10-10 21h39.22.216576 +0530,
84,0,84,[0.48032407407407407],[0.3541666666666667],[1],[0],[0],[2.0396746997721493],['Target'],84,0,84,0,145.33216199977323,,10,145.31204289989546,145.33216199977323,145.33216199977323,0.042199499905109406,146.3336968999356,147.3525768998079,[0.48032407407407407],[0.3541666666666667],[1],[0],[0],[2.0396746997721493],['Target'],4,004,2024-10-10_21h38.56.109,Visual Search Task,2024.2.1post4,60.05785974917236,2024-10-10 21h39.22.216576 +0530,
85,0,85,[0.14351851851851852],[0.22569444444444445],[1],[0],[0],[1.1866143001243472],['Target'],85,0,85,0,147.39841199992225,,5,147.38178819976747,147.39841199992225,147.39841199992225,0.028906300198286772,148.40020709997043,148.5693048001267,[0.14351851851851852],[0.22569444444444445],[1],[0],[0],[1.1866143001243472],['Target'],4,004,2024-10-10_21h38.56.109,Visual Search Task,2024.2.1post4,60.05785974917236,2024-10-10 21h39.22.216576 +0530,
86,0,86,[0.06944444444444445],[-0.1388888888888889],[1],[0],[0],[0.994876999873668],['Target'],86,0,86,0,148.61520690005273,,5,148.5929247001186,148.61520690005273,148.61520690005273,0.02335439994931221,,149.5888082999736,[0.06944444444444445],[-0.1388888888888889],[1],[0],[0],[0.994876999873668],['Target'],4,004,2024-10-10_21h38.56.109,Visual Search Task,2024.2.1post4,60.05785974917236,2024-10-10 21h39.22.216576 +0530,
87,0,87,[0.4537037037037037],[-0.21643518518518517],[1],[0],[0],[1.3909326000139117],['Target'],87,0,87,0,149.63162630004808,,5,149.61009840015322,149.63162630004808,149.63162630004808,0.02101929998025298,150.63322009984404,151.00193780008703,[0.4537037037037037],[-0.21643518518518517],[1],[0],[0],[1.3909326000139117],['Target'],4,004,2024-10-10_21h38.56.109,Visual Search Task,2024.2.1post4,60.05785974917236,2024-10-10 21h39.22.216576 +0530,
88,0,88,[0.11921296296296297],[0.125],[1],[0],[0],[1.1271321000531316],['Target'],88,0,88,0,151.0650661000982,,10,151.041173200123,151.0650661000982,151.0650661000982,0.038927499670535326,152.066580099985,152.16912329988554,[0.11921296296296297],[0.125],[1],[0],[0],[1.1271321000531316],['Target'],4,004,2024-10-10_21h38.56.109,Visual Search Task,2024.2.1post4,60.05785974917236,2024-10-10 21h39.22.216576 +0530,
89,0,89,[-0.3680555555555556],[-0.009259259259259259],[1],[0],[0],[1.7760763000696898],['Target'],89,0,89,0,152.23158170003444,,10,152.20871309982613,152.23158170003444,152.23158170003444,0.039261000230908394,153.2329425998032,153.98559779999778,[-0.3680555555555556],[-0.009259259259259259],[1],[0],[0],[1.7760763000696898],['Target'],4,004,2024-10-10_21h38.56.109,Visual Search Task,2024.2.1post4,60.05785974917236,2024-10-10 21h39.22.216576 +0530,
90,0,90,[-0.2847222222222222],[0.16435185185185186],[1],[0],[0],[1.4033154998905957],['Target'],90,0,90,0,154.04771440010518,,5,154.01511760009453,154.04771440010518,154.04771440010518,0.029213900212198496,155.04950870014727,155.4193230001256,[-0.2847222222222222],[0.16435185185185186],[1],[0],[0],[1.4033154998905957],['Target'],4,004,2024-10-10_21h38.56.109,Visual Search Task,2024.2.1post4,60.05785974917236,2024-10-10 21h39.22.216576 +0530,
91,0,91,[0.1388888888888889],[-0.43287037037037035],[1],[0],[0],[1.835706299636513],['Target'],91,0,91,0,155.48060429980978,,10,155.46444489993155,155.48060429980978,155.48060429980978,0.044867000076919794,156.48236100003123,157.30090399971232,[0.1388888888888889],[-0.43287037037037035],[1],[0],[0],[1.835706299636513],['Target'],4,004,2024-10-10_21h38.56.109,Visual Search Task,2024.2.1post4,60.05785974917236,2024-10-10 21h39.22.216576 +0530,
92,0,92,[-0.2569444444444444],[-0.12268518518518519],[1],[0],[0],[1.2616308997385204],['Target'],92,0,92,0,157.34753599995747,,5,157.32362930011004,157.34753599995747,157.34753599995747,0.02240190003067255,158.34889699984342,158.5860568000935,[-0.2569444444444444],[-0.12268518518518519],[1],[0],[0],[1.2616308997385204],['Target'],4,004,2024-10-10_21h38.56.109,Visual Search Task,2024.2.1post4,60.05785974917236,2024-10-10 21h39.22.216576 +0530,
93,0,93,[-0.1840277777777778],[0.26157407407407407],[1],[0],[0],[3.092783400323242],['Target'],93,0,93,0,158.6473499997519,,10,158.62417460000142,158.6473499997519,158.6473499997519,0.0378406997770071,159.64885669993237,161.71807250007987,[-0.1840277777777778],[0.26157407407407407],[1],[0],[0],[3.092783400323242],['Target'],4,004,2024-10-10_21h38.56.109,Visual Search Task,2024.2.1post4,60.05785974917236,2024-10-10 21h39.22.216576 +0530,
94,0,94,[-0.24768518518518517],[0.44560185185185186],[1],[0],[0],[2.058875999879092],['Target'],94,0,94,0,161.76348470011726,,5,161.74196620006114,161.76348470011726,161.76348470011726,0.023574800230562687,162.76494249980897,163.80164470011368,[-0.24768518518518517],[0.44560185185185186],[1],[0],[0],[2.058875999879092],['Target'],4,004,2024-10-10_21h38.56.109,Visual Search Task,2024.2.1post4,60.05785974917236,2024-10-10 21h39.22.216576 +0530,
95,0,95,[-0.12731481481481483],[0.23958333333333334],[1],[0],[0],[1.2269476000219584],['Target'],95,0,95,0,163.84647519979626,,5,163.82372559979558,163.84647519979626,163.84647519979626,0.02180090034380555,164.84794780006632,165.05147940013558,[-0.12731481481481483],[0.23958333333333334],[1],[0],[0],[1.2269476000219584],['Target'],4,004,2024-10-10_21h38.56.109,Visual Search Task,2024.2.1post4,60.05785974917236,2024-10-10 21h39.22.216576 +0530,
96,0,96,[-0.46064814814814814],[0.2847222222222222],[1],[0],[0],[1.4912419999018312],['Target'],96,0,96,0,165.11331779975444,,10,165.09131109993905,165.11331779975444,165.11331779975444,0.039577600080519915,166.1145962998271,166.58333740010858,[-0.46064814814814814],[0.2847222222222222],[1],[0],[0],[1.4912419999018312],['Target'],4,004,2024-10-10_21h38.56.109,Visual Search Task,2024.2.1post4,60.05785974917236,2024-10-10 21h39.22.216576 +0530,
97,0,97,[0.09375],[0.4675925925925926],[1],[0],[0],[2.660991400014609],['Target'],97,0,97,0,166.6295932000503,,5,166.60472279973328,166.6295932000503,166.6295932000503,0.021073299925774336,167.6311792000197,169.26650100015104,[0.09375],[0.4675925925925926],[1],[0],[0],[2.660991400014609],['Target'],4,004,2024-10-10_21h38.56.109,Visual Search Task,2024.2.1post4,60.05785974917236,2024-10-10 21h39.22.216576 +0530,
98,0,98,[0.19791666666666666],[0.3611111111111111],[1],[0],[0],[1.6919217999093235],['Target'],98,0,98,0,169.31268019974232,,5,169.29139539971948,169.31268019974232,169.31268019974232,0.02465130016207695,170.3141586999409,170.98415300017223,[0.19791666666666666],[0.3611111111111111],[1],[0],[0],[1.6919217999093235],['Target'],4,004,2024-10-10_21h38.56.109,Visual Search Task,2024.2.1post4,60.05785974917236,2024-10-10 21h39.22.216576 +0530,
99,0,99,[0.16087962962962962],[0.38773148148148145],[1],[0],[0],[1.5572824999690056],['Target'],99,0,99,0,171.04563819989562,,10,171.02623800002038,171.04563819989562,171.04563819989562,0.04182529961690307,172.0472280997783,172.58429879974574,[0.16087962962962962],[0.38773148148148145],[1],[0],[0],[1.5572824999690056],['Target'],4,004,2024-10-10_21h38.56.109,Visual Search Task,2024.2.1post4,60.05785974917236,2024-10-10 21h39.22.216576 +0530,
100,0,100,[-0.3125],[0.4664351851851852],[1],[0],[0],[1.779765899758786],['Target'],100,0,100,0,172.6463926001452,,10,172.61883329972625,172.6463926001452,172.6463926001452,0.034198999870568514,173.646945099812,174.39935009973124,[-0.3125],[0.4664351851851852],[1],[0],[0],[1.779765899758786],['Target'],4,004,2024-10-10_21h38.56.109,Visual Search Task,2024.2.1post4,60.05785974917236,2024-10-10 21h39.22.216576 +0530,
101,0,101,[0.3773148148148148],[0.23958333333333334],[1],[0],[0],[1.9569690003991127],['Target'],101,0,101,0,174.44521200004965,,5,174.42447589989752,174.44521200004965,174.44521200004965,0.024840000085532665,175.44671589974314,176.3822356997989,[0.3773148148148148],[0.23958333333333334],[1],[0],[0],[1.9569690003991127],['Target'],4,004,2024-10-10_21h38.56.109,Visual Search Task,2024.2.1post4,60.05785974917236,2024-10-10 21h39.22.216576 +0530,
102,0,102,[0.13541666666666666],[-0.3101851851851852],[1],[0],[0],[1.5413096002303064],['Target'],102,0,102,0,176.42845779983327,,5,176.40652529988438,176.42845779983327,176.42845779983327,0.024049299769103527,177.42997179972008,177.94866999983788,[0.13541666666666666],[-0.3101851851851852],[1],[0],[0],[1.5413096002303064],['Target'],4,004,2024-10-10_21h38.56.109,Visual Search Task,2024.2.1post4,60.05785974917236,2024-10-10 21h39.22.216576 +0530,
103,0,103,[0.36689814814814814],[0.10648148148148148],[1],[0],[0],[1.545411900151521],['Target'],103,0,103,0,178.0115026999265,,10,177.98501279996708,178.0115026999265,178.0115026999265,0.03608309989795089,179.01301949983463,179.53123029973358,[0.36689814814814814],[0.10648148148148148],[1],[0],[0],[1.545411900151521],['Target'],4,004,2024-10-10_21h38.56.109,Visual Search Task,2024.2.1post4,60.05785974917236,2024-10-10 21h39.22.216576 +0530,
104,0,104,[0.056712962962962965],[0.24074074074074073],[1],[0],[0],[1.1775720999576151],['Target'],104,0,104,0,179.57789650000632,,5,179.55358299985528,179.57789650000632,179.57789650000632,0.022038199938833714,180.57948439987376,180.73193929996341,[0.056712962962962965],[0.24074074074074073],[1],[0],[0],[1.1775720999576151],['Target'],4,004,2024-10-10_21h38.56.109,Visual Search Task,2024.2.1post4,60.05785974917236,2024-10-10 21h39.22.216576 +0530,
105,0,105,[0.11689814814814815],[0.19791666666666666],[1],[0],[0],[1.026710200123489],['Target'],105,0,105,0,180.77761079976335,,5,180.7544108000584,180.77761079976335,180.77761079976335,0.02220249967649579,181.7797123999335,181.7819730998017,[0.11689814814814815],[0.19791666666666666],[1],[0],[0],[1.026710200123489],['Target'],4,004,2024-10-10_21h38.56.109,Visual Search Task,2024.2.1post4,60.05785974917236,2024-10-10 21h39.22.216576 +0530,
106,0,106,[0.12731481481481483],[0.09722222222222222],[1],[0],[0],[1.0028586997650564],['Target'],106,0,106,0,181.82769150007516,,5,181.8110142997466,181.82769150007516,181.82769150007516,0.028808800037950277,182.87731300015002,182.81472769984975,[0.12731481481481483],[0.09722222222222222],[1],[0],[0],[1.0028586997650564],['Target'],4,004,2024-10-10_21h38.56.109,Visual Search Task,2024.2.1post4,60.05785974917236,2024-10-10 21h39.22.216576 +0530,
107,0,107,[0.47337962962962965],[0.38310185185185186],[1],[0],[0],[1.8127271002158523],['Target'],107,0,107,0,182.87731300015002,,10,182.85108699975535,182.87731300015002,182.87731300015002,0.03609939990565181,183.8790186000988,184.6645888001658,[0.47337962962962965],[0.38310185185185186],[1],[0],[0],[1.8127271002158523],['Target'],4,004,2024-10-10_21h38.56.109,Visual Search Task,2024.2.1post4,60.05785974917236,2024-10-10 21h39.22.216576 +0530,
108,0,108,[0.32060185185185186],[-0.22337962962962962],[1],[0],[0],[1.9064524001441896],['Target'],108,0,108,0,184.7105342997238,,5,184.69306059973314,184.7105342997238,184.7105342997238,0.02818589983507991,185.71228019986302,186.60130350012332,[0.32060185185185186],[-0.22337962962962962],[1],[0],[0],[1.9064524001441896],['Target'],4,004,2024-10-10_21h38.56.109,Visual Search Task,2024.2.1post4,60.05785974917236,2024-10-10 21h39.22.216576 +0530,
109,0,109,[0.4305555555555556],[0.018518518518518517],[1],[0],[0],[1.3310817000456154],['Target'],109,0,109,0,186.67710059974343,,10,186.6502169999294,186.67710059974343,186.67710059974343,0.04830050002783537,187.67871369980276,187.98208890017122,[0.4305555555555556],[0.018518518518518517],[1],[0],[0],[1.3310817000456154],['Target'],4,004,2024-10-10_21h38.56.109,Visual Search Task,2024.2.1post4,60.05785974917236,2024-10-10 21h39.22.216576 +0530,
110,0,110,[0.2962962962962963],[-0.3645833333333333],[1],[0],[0],[1.6270619998686016],['Target'],110,0,110,0,188.04363849991933,,10,188.0189163000323,188.04363849991933,188.04363849991933,0.03650349983945489,189.04464829992503,189.64645580016077,[0.2962962962962963],[-0.3645833333333333],[1],[0],[0],[1.6270619998686016],['Target'],4,004,2024-10-10_21h38.56.109,Visual Search Task,2024.2.1post4,60.05785974917236,2024-10-10 21h39.22.216576 +0530,
111,0,111,[-0.22800925925925927],[-0.35648148148148145],[1],[0],[0],[1.4504023003391922],['Target'],111,0,111,0,189.675591299776,,5,189.6623571999371,189.675591299776,189.675591299776,0.015763900242745876,190.6775921001099,191.1132881999947,[-0.22800925925925927],[-0.35648148148148145],[1],[0],[0],[1.4504023003391922],['Target'],4,004,2024-10-10_21h38.56.109,Visual Search Task,2024.2.1post4,60.05785974917236,2024-10-10 21h39.22.216576 +0530,
112,0,112,[0.16782407407407407],[-0.2974537037037037],[1],[0],[0],[1.5520329996943474],['Target'],112,0,112,0,191.15929279988632,,10,191.1431533000432,191.15929279988632,191.15929279988632,0.029725499916821718,192.16049609985203,192.6959478999488,[0.16782407407407407],[-0.2974537037037037],[1],[0],[0],[1.5520329996943474],['Target'],4,004,2024-10-10_21h38.56.109,Visual Search Task,2024.2.1post4,60.05785974917236,2024-10-10 21h39.22.216576 +0530,
113,0,113,[-0.2789351851851852],[-0.4131944444444444],[1],[0],[0],[1.5065160999074578],['Target'],113,0,113,0,192.7588431998156,,10,192.73847820004448,192.7588431998156,192.7588431998156,0.04222699999809265,193.7608998999931,194.24593059998006,[-0.2789351851851852],[-0.4131944444444444],[1],[0],[0],[1.5065160999074578],['Target'],4,004,2024-10-10_21h38.56.109,Visual Search Task,2024.2.1post4,60.05785974917236,2024-10-10 21h39.22.216576 +0530,
114,0,114,[0.4664351851851852],[0.2916666666666667],[1],[0],[0],[2.318494599778205],['Target'],114,0,114,0,194.29200260015205,,10,194.27803839975968,194.29200260015205,194.29200260015205,0.031779099721461535,195.2934548999183,196.59730720007792,[0.4664351851851852],[0.2916666666666667],[1],[0],[0],[2.318494599778205],['Target'],4,004,2024-10-10_21h38.56.109,Visual Search Task,2024.2.1post4,60.05785974917236,2024-10-10 21h39.22.216576 +0530,
115,0,115,[0.46875],[0.3726851851851852],[1],[0],[0],[1.4567702999338508],['Target'],115,0,115,0,196.65820840001106,,10,196.6401073001325,196.65820840001106,196.65820840001106,0.04248020006343722,197.65981409978122,198.09767240006477,[0.46875],[0.3726851851851852],[1],[0],[0],[1.4567702999338508],['Target'],4,004,2024-10-10_21h38.56.109,Visual Search Task,2024.2.1post4,60.05785974917236,2024-10-10 21h39.22.216576 +0530,
116,0,116,[-0.38310185185185186],[0.0763888888888889],[1],[0],[0],[1.6670122002251446],['Target'],116,0,116,0,198.17505660001189,,10,198.14438669988886,198.17505660001189,198.17505660001189,0.04642000002786517,199.17670279974118,199.8121612998657,[-0.38310185185185186],[0.0763888888888889],[1],[0],[0],[1.6670122002251446],['Target'],4,004,2024-10-10_21h38.56.109,Visual Search Task,2024.2.1post4,60.05785974917236,2024-10-10 21h39.22.216576 +0530,
117,0,117,[0.059027777777777776],[0.09953703703703703],[1],[0],[0],[1.408529699780047],['Target'],117,0,117,0,199.8748495997861,,10,199.85295559978113,199.8748495997861,199.8748495997861,0.04049759963527322,200.87646530009806,201.2622552998364,[0.059027777777777776],[0.09953703703703703],[1],[0],[0],[1.408529699780047],['Target'],4,004,2024-10-10_21h38.56.109,Visual Search Task,2024.2.1post4,60.05785974917236,2024-10-10 21h39.22.216576 +0530,
118,0,118,[-0.34837962962962965],[0.4861111111111111],[1],[0],[0],[1.9907904998399317],['Target'],118,0,118,0,201.3084688000381,,5,201.28787360014394,201.3084688000381,201.3084688000381,0.025314800441265106,202.309928199742,203.27951089991257,[-0.34837962962962965],[0.4861111111111111],[1],[0],[0],[1.9907904998399317],['Target'],4,004,2024-10-10_21h38.56.109,Visual Search Task,2024.2.1post4,60.05785974917236,2024-10-10 21h39.22.216576 +0530,
119,0,119,[-0.018518518518518517],[0.4583333333333333],[1],[0],[0],[2.445086400024593],['Target'],119,0,119,0,203.3415080998093,,10,203.31546470010653,203.3415080998093,203.3415080998093,0.035711000207811594,204.34310399973765,205.7613929999061,[-0.018518518518518517],[0.4583333333333333],[1],[0],[0],[2.445086400024593],['Target'],4,004,2024-10-10_21h38.56.109,Visual Search Task,2024.2.1post4,60.05785974917236,2024-10-10 21h39.22.216576 +0530,
120,0,120,[-0.21296296296296297],[0.3460648148148148],[1],[0],[0],[1.2406538999639452],['Target'],120,0,120,0,205.80776190012693,,5,205.78731699986383,205.80776190012693,205.80776190012693,0.025558900088071823,206.80943890009075,207.0288196997717,[-0.21296296296296297],[0.3460648148148148],[1],[0],[0],[1.2406538999639452],['Target'],4,004,2024-10-10_21h38.56.109,Visual Search Task,2024.2.1post4,60.05785974917236,2024-10-10 21h39.22.216576 +0530,
121,0,121,[0.14351851851851852],[0.13773148148148148],[1],[0],[0],[1.5086423996835947],['Target'],121,0,121,0,207.07445089984685,,5,207.05236419988796,207.07445089984685,207.07445089984685,0.023277000058442354,208.07580849993974,208.5617792000994,[0.14351851851851852],[0.13773148148148148],[1],[0],[0],[1.5086423996835947],['Target'],4,004,2024-10-10_21h38.56.109,Visual Search Task,2024.2.1post4,60.05785974917236,2024-10-10 21h39.22.216576 +0530,
122,0,122,[-0.03009259259259259],[0.43171296296296297],[1],[0],[0],[1.3890567002817988],['Target'],122,0,122,0,208.60758269997314,,5,208.588115000166,208.60758269997314,208.60758269997314,0.026108600199222565,209.60895350016654,209.97806550003588,[-0.03009259259259259],[0.43171296296296297],[1],[0],[0],[1.3890567002817988],['Target'],4,004,2024-10-10_21h38.56.109,Visual Search Task,2024.2.1post4,60.05785974917236,2024-10-10 21h39.22.216576 +0530,
123,0,123,[-0.03009259259259259],[0.3854166666666667],[1],[0],[0],[1.190571099985391],['Target'],123,0,123,0,210.04075649986044,,10,210.02145420014858,210.04075649986044,210.04075649986044,0.043146700132638216,211.04225490009412,211.21281739976257,[-0.03009259259259259],[0.3854166666666667],[1],[0],[0],[1.190571099985391],['Target'],4,004,2024-10-10_21h38.56.109,Visual Search Task,2024.2.1post4,60.05785974917236,2024-10-10 21h39.22.216576 +0530,
124,0,124,[-0.33912037037037035],[0.059027777777777776],[1],[0],[0],[1.78797070030123],['Target'],124,0,124,0,211.25716409971938,,5,211.23847500002012,211.25716409971938,211.25716409971938,0.025333600118756294,212.2589313997887,213.02724710013717,[-0.33912037037037035],[0.059027777777777776],[1],[0],[0],[1.78797070030123],['Target'],4,004,2024-10-10_21h38.56.109,Visual Search Task,2024.2.1post4,60.05785974917236,2024-10-10 21h39.22.216576 +0530,
125,0,125,[0.4074074074074074],[-0.0787037037037037],[1],[0],[0],[1.81876299995929],['Target'],125,0,125,0,213.0901176999323,,10,213.0742991999723,213.0901176999323,213.0901176999323,0.04678029986098409,214.0920172999613,214.89391299989074,[0.4074074074074074],[-0.0787037037037037],[1],[0],[0],[1.81876299995929],['Target'],4,004,2024-10-10_21h38.56.109,Visual Search Task,2024.2.1post4,60.05785974917236,2024-10-10 21h39.22.216576 +0530,
126,0,126,[0.43171296296296297],[0.2800925925925926],[1],[0],[0],[1.6928191003389657],['Target'],126,0,126,0,214.94019170012325,,5,214.9170659999363,214.94019170012325,214.94019170012325,0.022845199797302485,215.94164450000972,216.61072230013087,[0.43171296296296297],[0.2800925925925926],[1],[0],[0],[1.6928191003389657],['Target'],4,004,2024-10-10_21h38.56.109,Visual Search Task,2024.2.1post4,60.05785974917236,2024-10-10 21h39.22.216576 +0530,
127,0,127,[0.23148148148148148],[-0.33101851851851855],[1],[0],[0],[1.6960280002094805],['Target'],127,0,127,0,216.6733593000099,,10,216.64671219978482,216.6733593000099,216.6733593000099,0.03572490019723773,217.67477079993114,218.34355749981478,[0.23148148148148148],[-0.33101851851851855],[1],[0],[0],[1.6960280002094805],['Target'],4,004,2024-10-10_21h38.56.109,Visual Search Task,2024.2.1post4,60.05785974917236,2024-10-10 21h39.22.216576 +0530,
128,0,128,[0.4131944444444444],[-0.27314814814814814],[1],[0],[0],[1.865653300192207],['Target'],128,0,128,0,218.40637210011482,,10,218.3773747999221,218.40637210011482,218.40637210011482,0.033489800058305264,219.40774019993842,220.24375479994342,[0.4131944444444444],[-0.27314814814814814],[1],[0],[0],[1.865653300192207],['Target'],4,004,2024-10-10_21h38.56.109,Visual Search Task,2024.2.1post4,60.05785974917236,2024-10-10 21h39.22.216576 +0530,
129,0,129,[0.2025462962962963],[0.0011574074074074073],[1],[0],[0],[1.3093655998818576],['Target'],129,0,129,0,220.28949819970876,,5,220.2666512997821,220.28949819970876,220.28949819970876,0.0225615999661386,221.29105919972062,221.5768690998666,[0.2025462962962963],[0.0011574074074074073],[1],[0],[0],[1.3093655998818576],['Target'],4,004,2024-10-10_21h38.56.109,Visual Search Task,2024.2.1post4,60.05785974917236,2024-10-10 21h39.22.216576 +0530,
130,0,130,[0.25925925925925924],[-0.32407407407407407],[1],[0],[0],[1.4258781000971794],['Target'],130,0,130,0,221.62249589990824,,5,221.60051159979776,221.62249589990824,221.62249589990824,0.023292700294405222,222.6241681999527,223.0274998000823,[0.25925925925925924],[-0.32407407407407407],[1],[0],[0],[1.4258781000971794],['Target'],4,004,2024-10-10_21h38.56.109,Visual Search Task,2024.2.1post4,60.05785974917236,2024-10-10 21h39.22.216576 +0530,
131,0,131,[0.13657407407407407],[-0.4710648148148148],[1],[0],[0],[1.7923571998253465],['Target'],131,0,131,0,223.08877689996734,,5,223.06635149987414,223.08877689996734,223.08877689996734,0.03835320007055998,224.09073479985818,224.85948590002954,[0.13657407407407407],[-0.4710648148148148],[1],[0],[0],[1.7923571998253465],['Target'],4,004,2024-10-10_21h38.56.109,Visual Search Task,2024.2.1post4,60.05785974917236,2024-10-10 21h39.22.216576 +0530,
132,0,132,[0.29050925925925924],[-0.4363425925925926],[1],[0],[0],[2.078430399764329],['Target'],132,0,132,0,224.92224049987271,,10,224.89542629988864,224.92224049987271,224.92224049987271,0.035665299743413925,225.92304430017248,226.9746444998309,[0.29050925925925924],[-0.4363425925925926],[1],[0],[0],[2.078430399764329],['Target'],4,004,2024-10-10_21h38.56.109,Visual Search Task,2024.2.1post4,60.05785974917236,2024-10-10 21h39.22.216576 +0530,
133,0,133,[-0.09837962962962964],[0.3506944444444444],[1],[0],[0],[1.5605103997513652],['Target'],133,0,133,0,227.02127199992537,,5,226.99751520017162,227.02127199992537,227.02127199992537,0.022551399655640125,228.02294320007786,228.55878720013425,[-0.09837962962962964],[0.3506944444444444],[1],[0],[0],[1.5605103997513652],['Target'],4,004,2024-10-10_21h38.56.109,Visual Search Task,2024.2.1post4,60.05785974917236,2024-10-10 21h39.22.216576 +0530,
134,0,134,[-0.3576388888888889],[-0.1712962962962963],[1],[0],[0],[2.081378099974245],['Target'],134,0,134,0,228.62108050007373,,10,228.59253010014072,228.62108050007373,228.62108050007373,0.03346290020272136,229.62258129986003,230.67468479974195,[-0.3576388888888889],[-0.1712962962962963],[1],[0],[0],[2.081378099974245],['Target'],4,004,2024-10-10_21h38.56.109,Visual Search Task,2024.2.1post4,60.05785974917236,2024-10-10 21h39.22.216576 +0530,
135,0,135,[-0.02199074074074074],[-0.2962962962962963],[1],[0],[0],[2.007303200196475],['Target'],135,0,135,0,230.73763109976426,,10,230.71699590003118,230.73763109976426,230.73763109976426,0.04199470020830631,231.7394411000423,232.7250693999231,[-0.02199074074074074],[-0.2962962962962963],[1],[0],[0],[2.007303200196475],['Target'],4,004,2024-10-10_21h38.56.109,Visual Search Task,2024.2.1post4,60.05785974917236,2024-10-10 21h39.22.216576 +0530,
136,0,136,[-0.1527777777777778],[-0.33796296296296297],[1],[0],[0],[1.7435091002844274],['Target'],136,0,136,0,232.77108759991825,,5,232.74756189994514,232.77108759991825,232.77108759991825,0.022168499883264303,233.7727910997346,234.49189860001206,[-0.1527777777777778],[-0.33796296296296297],[1],[0],[0],[1.7435091002844274],['Target'],4,004,2024-10-10_21h38.56.109,Visual Search Task,2024.2.1post4,60.05785974917236,2024-10-10 21h39.22.216576 +0530,
137,0,137,[-0.09490740740740741],[-0.3761574074074074],[1],[0],[0],[1.6097838999703526],['Target'],137,0,137,0,234.53770980006084,,5,234.51411229977384,234.53770980006084,234.53770980006084,0.021947700064629316,235.53916150005534,236.12469050008804,[-0.09490740740740741],[-0.3761574074074074],[1],[0],[0],[1.6097838999703526],['Target'],4,004,2024-10-10_21h38.56.109,Visual Search Task,2024.2.1post4,60.05785974917236,2024-10-10 21h39.22.216576 +0530,
138,0,138,[0.3472222222222222],[0.2048611111111111],[1],[0],[0],[1.7867568000219762],['Target'],138,0,138,0,236.18718549981713,,10,236.17050960008055,236.18718549981713,236.18718549981713,0.04557109996676445,237.18905510008335,237.95811840007082,[0.3472222222222222],[0.2048611111111111],[1],[0],[0],[1.7867568000219762],['Target'],4,004,2024-10-10_21h38.56.109,Visual Search Task,2024.2.1post4,60.05785974917236,2024-10-10 21h39.22.216576 +0530,
139,0,139,[0.16898148148148148],[0.4027777777777778],[1],[0],[0],[1.9305421998724341],['Target'],139,0,139,0,238.02044110000134,,10,237.9924944997765,238.02044110000134,238.02044110000134,0.034059399738907814,239.02206269977614,239.9238709998317,[0.16898148148148148],[0.4027777777777778],[1],[0],[0],[1.9305421998724341],['Target'],4,004,2024-10-10_21h38.56.109,Visual Search Task,2024.2.1post4,60.05785974917236,2024-10-10 21h39.22.216576 +0530,
140,0,140,[0.16666666666666666],[0.44560185185185186],[1],[0],[0],[2.62384400004521],['Target'],140,0,140,0,239.98693999974057,,10,239.96740600001067,239.98693999974057,239.98693999974057,0.04318819986656308,240.98860479984432,242.592055299785,[0.16666666666666666],[0.44560185185185186],[1],[0],[0],[2.62384400004521],['Target'],4,004,2024-10-10_21h38.56.109,Visual Search Task,2024.2.1post4,60.05785974917236,2024-10-10 21h39.22.216576 +0530,
141,0,141,[0.09490740740740741],[0.31828703703703703],[1],[0],[0],[1.1741160997189581],['Target'],141,0,141,0,242.63647329993546,,5,242.61554769985378,242.63647329993546,242.63647329993546,0.02318460028618574,243.63832599995658,243.7906084000133,[0.09490740740740741],[0.31828703703703703],[1],[0],[0],[1.1741160997189581],['Target'],4,004,2024-10-10_21h38.56.109,Visual Search Task,2024.2.1post4,60.05785974917236,2024-10-10 21h39.22.216576 +0530,
142,0,142,[-0.45023148148148145],[-0.11921296296296297],[1],[0],[0],[1.738510999828577],['Target'],142,0,142,0,243.85308759985492,,10,243.8341402001679,243.85308759985492,243.85308759985492,0.04322130000218749,244.85460580000654,245.57351389992982,[-0.45023148148148145],[-0.11921296296296297],[1],[0],[0],[1.738510999828577],['Target'],4,004,2024-10-10_21h38.56.109,Visual Search Task,2024.2.1post4,60.05785974917236,2024-10-10 21h39.22.216576 +0530,
143,0,143,[-0.08680555555555555],[0.19212962962962962],[1],[0],[0],[1.9607138996943831],['Target'],143,0,143,0,245.61959140002728,,5,245.59539429983124,245.61959140002728,245.61959140002728,0.021598499733954668,246.6210956000723,247.55689360015094,[-0.08680555555555555],[0.19212962962962962],[1],[0],[0],[1.9607138996943831],['Target'],4,004,2024-10-10_21h38.56.109,Visual Search Task,2024.2.1post4,60.05785974917236,2024-10-10 21h39.22.216576 +0530,
144,0,144,[0.3761574074074074],[-0.2673611111111111],[1],[0],[0],[2.396797699853778],['Target'],144,0,144,0,247.61939129978418,,10,247.59420359972864,247.61939129978418,247.61939129978418,0.03704589977860451,248.62088319985196,249.99173210002482,[0.3761574074074074],[-0.2673611111111111],[1],[0],[0],[2.396797699853778],['Target'],4,004,2024-10-10_21h38.56.109,Visual Search Task,2024.2.1post4,60.05785974917236,2024-10-10 21h39.22.216576 +0530,
145,0,145,[0.24537037037037038],[-0.028935185185185185],[1],[0],[0],[1.2904538000002503],['Target'],145,0,145,0,250.05249539995566,,10,250.0328003000468,250.05249539995566,250.05249539995566,0.040745100006461143,251.05401880014688,251.32408430008218,[0.24537037037037038],[-0.028935185185185185],[1],[0],[0],[1.2904538000002503],['Target'],4,004,2024-10-10_21h38.56.109,Visual Search Task,2024.2.1post4,60.05785974917236,2024-10-10 21h39.22.216576 +0530,
146,0,146,[0.23032407407407407],[-0.47337962962962965],[1],[0],[0],[1.588177700061351],['Target'],146,0,146,0,251.38567559979856,,10,251.3670451999642,251.38567559979856,251.38567559979856,0.04263869998976588,252.38729010010138,252.95599279971793,[0.23032407407407407],[-0.47337962962962965],[1],[0],[0],[1.588177700061351],['Target'],4,004,2024-10-10_21h38.56.109,Visual Search Task,2024.2.1post4,60.05785974917236,2024-10-10 21h39.22.216576 +0530,
147,0,147,[-0.34375],[0.31712962962962965],[1],[0],[0],[1.673840899951756],['Target'],147,0,147,0,253.001815199852,,5,252.98299050005153,253.001815199852,253.001815199852,0.026700499933212996,254.00366970011964,254.6576950000599,[-0.34375],[0.31712962962962965],[1],[0],[0],[1.673840899951756],['Target'],4,004,2024-10-10_21h38.56.109,Visual Search Task,2024.2.1post4,60.05785974917236,2024-10-10 21h39.22.216576 +0530,
148,0,148,[0.2037037037037037],[-0.38425925925925924],[1],[0],[0],[1.9749168995767832],['Target'],148,0,148,0,254.71822990011424,,10,254.69771119998768,254.71822990011424,254.71822990011424,0.03977379994466901,255.72021349985152,256.67337179975584,[0.2037037037037037],[-0.38425925925925924],[1],[0],[0],[1.9749168995767832],['Target'],4,004,2024-10-10_21h38.56.109,Visual Search Task,2024.2.1post4,60.05785974917236,2024-10-10 21h39.22.216576 +0530,
149,0,149,[0.38425925925925924],[-0.06481481481481481],[1],[0],[0],[1.4536701003089547],['Target'],149,0,149,0,256.71796130016446,,5,256.7007002001628,256.71796130016446,256.71796130016446,0.027027499862015247,257.71970620006323,258.1551890997216,[0.38425925925925924],[-0.06481481481481481],[1],[0],[0],[1.4536701003089547],['Target'],4,004,2024-10-10_21h38.56.109,Visual Search Task,2024.2.1post4,60.05785974917236,2024-10-10 21h39.22.216576 +0530,
150,0,150,[-0.27314814814814814],[0.059027777777777776],[1],[0],[0],[1.9266141997650266],['Target'],150,0,150,0,258.2013686997816,,5,258.1775249997154,258.2013686997816,258.2013686997816,0.022085499949753284,259.20281099993736,260.10492829978466,[-0.27314814814814814],[0.059027777777777776],[1],[0],[0],[1.9266141997650266],['Target'],4,004,2024-10-10_21h38.56.109,Visual Search Task,2024.2.1post4,60.05785974917236,2024-10-10 21h39.22.216576 +0530,
151,0,151,[-0.3819444444444444],[0.0763888888888889],[1],[0],[0],[1.4263736996799707],['Target'],151,0,151,0,260.16777139995247,,10,260.144345600158,260.16777139995247,260.16777139995247,0.039129399694502354,261.1692570997402,261.5714849997312,[-0.3819444444444444],[0.0763888888888889],[1],[0],[0],[1.4263736996799707],['Target'],4,004,2024-10-10_21h38.56.109,Visual Search Task,2024.2.1post4,60.05785974917236,2024-10-10 21h39.22.216576 +0530,
152,0,152,[0.3541666666666667],[0.35185185185185186],[1],[0],[0],[2.590399300213903],['Target'],152,0,152,0,261.63408889994025,,10,261.6135211000219,261.63408889994025,261.63408889994025,0.04172470001503825,262.63580380007625,264.2047318997793,[0.3541666666666667],[0.35185185185185186],[1],[0],[0],[2.590399300213903],['Target'],4,004,2024-10-10_21h38.56.109,Visual Search Task,2024.2.1post4,60.05785974917236,2024-10-10 21h39.22.216576 +0530,
153,0,153,[-0.17476851851851852],[0.47453703703703703],[1],[0],[0],[4.265987100079656],['Target'],153,0,153,0,264.26713629998267,,10,264.2376418998465,264.26713629998267,264.26713629998267,0.032580400351434946,265.26883800001815,268.50441339984536,[-0.17476851851851852],[0.47453703703703703],[1],[0],[0],[4.265987100079656],['Target'],4,004,2024-10-10_21h38.56.109,Visual Search Task,2024.2.1post4,60.05785974917236,2024-10-10 21h39.22.216576 +0530,
154,0,154,[-0.3402777777777778],[-0.3738425925925926],[1],[0],[0],[2.669517199974507],['Target'],154,0,154,0,268.5500877001323,,5,268.53336359979585,268.5500877001323,268.5500877001323,0.02864610031247139,269.551551300101,271.2036403999664,[-0.3402777777777778],[-0.3738425925925926],[1],[0],[0],[2.669517199974507],['Target'],4,004,2024-10-10_21h38.56.109,Visual Search Task,2024.2.1post4,60.05785974917236,2024-10-10 21h39.22.216576 +0530,
155,0,155,[0.3576388888888889],[-0.14930555555555555],[1],[0],[0],[2.859192400239408],['Target'],155,0,155,0,271.2665038998239,,10,271.24267499987036,271.2665038998239,271.2665038998239,0.03877419978380203,272.26780539983884,274.1026800000109,[0.3576388888888889],[-0.14930555555555555],[1],[0],[0],[2.859192400239408],['Target'],4,004,2024-10-10_21h38.56.109,Visual Search Task,2024.2.1post4,60.05785974917236,2024-10-10 21h39.22.216576 +0530,
156,0,156,[-0.4861111111111111],[-0.4398148148148148],[1],[0],[0],[2.2285210001282394],['Target'],156,0,156,0,274.14935139985755,,5,274.123725600075,274.14935139985755,274.14935139985755,0.020702899899333715,275.150866500102,276.35316669987515,[-0.4861111111111111],[-0.4398148148148148],[1],[0],[0],[2.2285210001282394],['Target'],4,004,2024-10-10_21h38.56.109,Visual Search Task,2024.2.1post4,60.05785974917236,2024-10-10 21h39.22.216576 +0530,
157,0,157,[-0.46412037037037035],[0.4837962962962963],[1],[0],[0],[2.771782800089568],['Target'],157,0,157,0,276.3990573999472,,5,276.37907709972933,276.3990573999472,276.3990573999472,0.025684900116175413,277.4005017997697,279.15142019977793,[-0.46412037037037035],[0.4837962962962963],[1],[0],[0],[2.771782800089568],['Target'],4,004,2024-10-10_21h38.56.109,Visual Search Task,2024.2.1post4,60.05785974917236,2024-10-10 21h39.22.216576 +0530,
158,0,158,[0.3449074074074074],[0.26967592592592593],[1],[0],[0],[1.9073056001216173],['Target'],158,0,158,0,279.198343699798,,5,279.17795290006325,279.198343699798,279.198343699798,0.026214799843728542,280.2010542997159,281.0861148000695,[0.3449074074074074],[0.26967592592592593],[1],[0],[0],[1.9073056001216173],['Target'],4,004,2024-10-10_21h38.56.109,Visual Search Task,2024.2.1post4,60.05785974917236,2024-10-10 21h39.22.216576 +0530,
159,0,159,[-0.4351851851851852],[-0.12152777777777778],[1],[0],[0],[1.3432122999802232],['Target'],159,0,159,0,281.13166290009394,,5,281.1079842997715,281.13166290009394,281.13166290009394,0.021630700211971998,282.1332038999535,282.4520084997639,[-0.4351851851851852],[-0.12152777777777778],[1],[0],[0],[1.3432122999802232],['Target'],4,004,2024-10-10_21h38.56.109,Visual Search Task,2024.2.1post4,60.05785974917236,2024-10-10 21h39.22.216576 +0530,
160,0,160,[-0.3738425925925926],[-0.14351851851851852],[1],[0],[0],[1.7451601000502706],['Target'],160,0,160,0,282.51479149982333,,10,282.48911029985175,282.51479149982333,282.51479149982333,0.03683000011369586,283.51639789994806,284.23506330000237,[-0.3738425925925926],[-0.14351851851851852],[1],[0],[0],[1.7451601000502706],['Target'],4,004,2024-10-10_21h38.56.109,Visual Search Task,2024.2.1post4,60.05785974917236,2024-10-10 21h39.22.216576 +0530,
161,0,161,[-0.2465277777777778],[0.06828703703703703],[1],[0],[0],[1.3607888002879918],['Target'],161,0,161,0,284.2810804997571,,5,284.25661400007084,284.2810804997571,284.2810804997571,0.021208999678492546,285.28271170007065,285.6181108998135,[-0.2465277777777778],[0.06828703703703703],[1],[0],[0],[1.3607888002879918],['Target'],4,004,2024-10-10_21h38.56.109,Visual Search Task,2024.2.1post4,60.05785974917236,2024-10-10 21h39.22.216576 +0530,
162,0,162,[0.34953703703703703],[0.32407407407407407],[1],[0],[0],[2.0166929000988603],['Target'],162,0,162,0,285.66430309973657,,10,285.65017500007525,285.66430309973657,285.66430309973657,0.031857799738645554,286.66598859988153,287.66763440007344,[0.34953703703703703],[0.32407407407407407],[1],[0],[0],[2.0166929000988603],['Target'],4,004,2024-10-10_21h38.56.109,Visual Search Task,2024.2.1post4,60.05785974917236,2024-10-10 21h39.22.216576 +0530,
163,0,163,[0.2534722222222222],[-0.2777777777777778],[1],[0],[0],[2.6600109999999404],['Target'],163,0,163,0,287.73105280008167,,10,287.70806209975854,287.73105280008167,287.73105280008167,0.04008649988099933,288.7326015001163,290.36888359999284,[0.2534722222222222],[-0.2777777777777778],[1],[0],[0],[2.6600109999999404],['Target'],4,004,2024-10-10_21h38.56.109,Visual Search Task,2024.2.1post4,60.05785974917236,2024-10-10 21h39.22.216576 +0530,
164,0,164,[0.46296296296296297],[0.3611111111111111],[1],[0],[0],[1.7598868999630213],['Target'],164,0,164,0,290.41389389988035,,5,290.3902535997331,290.41389389988035,290.41389389988035,0.02109160041436553,291.4155001998879,292.15095679974183,[0.46296296296296297],[0.3611111111111111],[1],[0],[0],[1.7598868999630213],['Target'],4,004,2024-10-10_21h38.56.109,Visual Search Task,2024.2.1post4,60.05785974917236,2024-10-10 21h39.22.216576 +0530,
165,0,165,[0.3101851851851852],[-0.2662037037037037],[1],[0],[0],[2.006236399989575],['Target'],165,0,165,0,292.21373610012233,,10,292.1941796997562,292.21373610012233,292.21373610012233,0.042970099952071905,293.215104599949,294.2012424999848,[0.3101851851851852],[-0.2662037037037037],[1],[0],[0],[2.006236399989575],['Target'],4,004,2024-10-10_21h38.56.109,Visual Search Task,2024.2.1post4,60.05785974917236,2024-10-10 21h39.22.216576 +0530,
166,0,166,[0.26157407407407407],[-0.44907407407407407],[1],[0],[0],[2.0632634004577994],['Target'],166,0,166,0,294.2633754000999,,10,294.23660139972344,294.2633754000999,294.2633754000999,0.03493000008165836,295.2650199001655,296.3006440997124,[0.26157407407407407],[-0.44907407407407407],[1],[0],[0],[2.0632634004577994],['Target'],4,004,2024-10-10_21h38.56.109,Visual Search Task,2024.2.1post4,60.05785974917236,2024-10-10 21h39.22.216576 +0530,
167,0,167,[0.023148148148148147],[-0.4583333333333333],[1],[0],[0],[1.7621602998115122],['Target'],167,0,167,0,296.3623587000184,,10,296.33633989980444,296.3623587000184,296.3623587000184,0.03537510009482503,297.363772300072,298.09926379984245,[0.023148148148148147],[-0.4583333333333333],[1],[0],[0],[1.7621602998115122],['Target'],4,004,2024-10-10_21h38.56.109,Visual Search Task,2024.2.1post4,60.05785974917236,2024-10-10 21h39.22.216576 +0530,
168,0,168,[0.46875],[-0.24074074074074073],[1],[0],[0],[2.0605710996314883],['Target'],168,0,168,0,298.1454819999635,,5,298.1214930000715,298.1454819999635,298.1454819999635,0.0219239997677505,299.14709360012785,300.18293600017205,[0.46875],[-0.24074074074074073],[1],[0],[0],[2.0605710996314883],['Target'],4,004,2024-10-10_21h38.56.109,Visual Search Task,2024.2.1post4,60.05785974917236,2024-10-10 21h39.22.216576 +0530,
169,0,169,[-0.3912037037037037],[-0.14351851851851852],[1],[0],[0],[1.7016104999929667],['Target'],169,0,169,0,300.24550139997154,,10,300.2298538000323,300.24550139997154,300.24550139997154,0.04663980007171631,301.24680620012805,301.9322104998864,[-0.3912037037037037],[-0.14351851851851852],[1],[0],[0],[1.7016104999929667],['Target'],4,004,2024-10-10_21h38.56.109,Visual Search Task,2024.2.1post4,60.05785974917236,2024-10-10 21h39.22.216576 +0530,
170,0,170,[0.2604166666666667],[0.12384259259259259],[1],[0],[0],[2.03918100008741],['Target'],170,0,170,0,301.97856470011175,,5,301.9595161001198,301.97856470011175,301.97856470011175,0.027020900044590235,302.9803659999743,303.99966070009395,[0.2604166666666667],[0.12384259259259259],[1],[0],[0],[2.03918100008741],['Target'],4,004,2024-10-10_21h38.56.109,Visual Search Task,2024.2.1post4,60.05785974917236,2024-10-10 21h39.22.216576 +0530,
171,0,171,[0.15393518518518517],[-0.20949074074074073],[1],[0],[0],[1.4768504998646677],['Target'],171,0,171,0,304.06232459982857,,10,304.0381017001346,304.06232459982857,304.06232459982857,0.03818049980327487,305.06373369973153,305.5157383000478,[0.15393518518518517],[-0.20949074074074073],[1],[0],[0],[1.4768504998646677],['Target'],4,004,2024-10-10_21h38.56.109,Visual Search Task,2024.2.1post4,60.05785974917236,2024-10-10 21h39.22.216576 +0530,
172,0,172,[-0.15856481481481483],[-0.38657407407407407],[1],[0],[0],[1.4000047999434173],['Target'],172,0,172,0,305.5786597998813,,10,305.5482553001493,305.5786597998813,305.5786597998813,0.03220470016822219,306.58033359982073,306.9490427998826,[-0.15856481481481483],[-0.38657407407407407],[1],[0],[0],[1.4000047999434173],['Target'],4,004,2024-10-10_21h38.56.109,Visual Search Task,2024.2.1post4,60.05785974917236,2024-10-10 21h39.22.216576 +0530,
173,0,173,[-0.34375],[-0.2025462962962963],[1],[0],[0],[1.4103310997597873],['Target'],173,0,173,0,306.99497100012377,,5,306.971724699717,306.99497100012377,306.99497100012377,0.022352999541908503,307.9966600998305,308.38283589994535,[-0.34375],[-0.2025462962962963],[1],[0],[0],[1.4103310997597873],['Target'],4,004,2024-10-10_21h38.56.109,Visual Search Task,2024.2.1post4,60.05785974917236,2024-10-10 21h39.22.216576 +0530,
174,0,174,[-0.2337962962962963],[-0.4201388888888889],[1],[0],[0],[1.5283300001174212],['Target'],174,0,174,0,308.4450099999085,,10,308.4190400997177,308.4450099999085,308.4450099999085,0.035940300207585096,309.44648669986054,309.9481403999962,[-0.2337962962962963],[-0.4201388888888889],[1],[0],[0],[1.5283300001174212],['Target'],4,004,2024-10-10_21h38.56.109,Visual Search Task,2024.2.1post4,60.05785974917236,2024-10-10 21h39.22.216576 +0530,
175,0,175,[-0.38773148148148145],[0.04861111111111111],[1],[0],[0],[1.7465793997980654],['Target'],175,0,175,0,310.01140430010855,,10,309.9845825000666,310.01140430010855,310.01140430010855,0.03612080030143261,311.01300980011,311.73194409999996,[-0.38773148148148145],[0.04861111111111111],[1],[0],[0],[1.7465793997980654],['Target'],4,004,2024-10-10_21h38.56.109,Visual Search Task,2024.2.1post4,60.05785974917236,2024-10-10 21h39.22.216576 +0530,
176,0,176,[0.015046296296296295],[0.19675925925925927],[1],[0],[0],[1.907322600018233],['Target'],176,0,176,0,311.79455380002037,,10,311.7747633000836,311.79455380002037,311.79455380002037,0.04250819981098175,312.79599179979414,313.68284579971805,[0.015046296296296295],[0.19675925925925927],[1],[0],[0],[1.907322600018233],['Target'],4,004,2024-10-10_21h38.56.109,Visual Search Task,2024.2.1post4,60.05785974917236,2024-10-10 21h39.22.216576 +0530,
177,0,177,[-0.47337962962962965],[0.028935185185185185],[1],[0],[0],[1.7080590999685228],['Target'],177,0,177,0,313.74424250004813,,10,313.7231652997434,313.74424250004813,313.74424250004813,0.03994080005213618,314.74575359979644,315.4320193999447,[-0.47337962962962965],[0.028935185185185185],[1],[0],[0],[1.7080590999685228],['Target'],4,004,2024-10-10_21h38.56.109,Visual Search Task,2024.2.1post4,60.05785974917236,2024-10-10 21h39.22.216576 +0530,
178,0,178,[0.3900462962962963],[-0.47337962962962965],[1],[0],[0],[3.2420820998959243],['Target'],178,0,178,0,315.4941545999609,,10,315.47215229971334,315.4941545999609,315.4941545999609,0.039678800385445356,316.4956796998158,318.71499719982967,[0.3900462962962963],[-0.47337962962962965],[1],[0],[0],[3.2420820998959243],['Target'],4,004,2024-10-10_21h38.56.109,Visual Search Task,2024.2.1post4,60.05785974917236,2024-10-10 21h39.22.216576 +0530,
179,0,179,[0.4201388888888889],[-0.27199074074074076],[1],[0],[0],[1.2097133002243936],['Target'],179,0,179,0,318.7769105997868,,10,318.75375200016424,318.7769105997868,318.7769105997868,0.03831479977816343,319.77841729996726,319.96425350010395,[0.4201388888888889],[-0.27199074074074076],[1],[0],[0],[1.2097133002243936],['Target'],4,004,2024-10-10_21h38.56.109,Visual Search Task,2024.2.1post4,60.05785974917236,2024-10-10 21h39.22.216576 +0530,
180,0,180,[-0.2523148148148148],[0.4722222222222222],[1],[0],[0],[2.158747599925846],['Target'],180,0,180,0,320.0100746997632,,5,319.9884661999531,320.0100746997632,320.0100746997632,0.02393710007891059,321.0117437001318,322.14801739994437,[-0.2523148148148148],[0.4722222222222222],[1],[0],[0],[2.158747599925846],['Target'],4,004,2024-10-10_21h38.56.109,Visual Search Task,2024.2.1post4,60.05785974917236,2024-10-10 21h39.22.216576 +0530,
181,0,181,[-0.016203703703703703],[-0.4363425925925926],[1],[0],[0],[1.7908231001347303],['Target'],181,0,181,0,322.1932868999429,,5,322.17244549980387,322.1932868999429,322.1932868999429,0.024202999658882618,323.19471989991143,323.96403260016814,[-0.016203703703703703],[-0.4363425925925926],[1],[0],[0],[1.7908231001347303],['Target'],4,004,2024-10-10_21h38.56.109,Visual Search Task,2024.2.1post4,60.05785974917236,2024-10-10 21h39.22.216576 +0530,
182,0,182,[0.44675925925925924],[0.43171296296296297],[1],[0],[0],[2.4046219997107983],['Target'],182,0,182,0,324.0262846997939,,10,324.0078000999056,324.0262846997939,324.0262846997939,0.04351599980145693,325.0277089001611,326.4131453000009,[0.44675925925925924],[0.43171296296296297],[1],[0],[0],[2.4046219997107983],['Target'],4,004,2024-10-10_21h38.56.109,Visual Search Task,2024.2.1post4,60.05785974917236,2024-10-10 21h39.22.216576 +0530,
183,0,183,[-0.38310185185185186],[0.30439814814814814],[1],[0],[0],[3.1745210997760296],['Target'],183,0,183,0,326.4761048001237,,10,326.45451269997284,326.4761048001237,326.4761048001237,0.04105019988492131,327.4775649998337,329.6298035001382,[-0.38310185185185186],[0.30439814814814814],[1],[0],[0],[3.1745210997760296],['Target'],4,004,2024-10-10_21h38.56.109,Visual Search Task,2024.2.1post4,60.05785974917236,2024-10-10 21h39.22.216576 +0530,
184,0,184,[-0.09143518518518519],[0.38657407407407407],[1],[0],[0],[1.4726168997585773],['Target'],184,0,184,0,329.67555740009993,,5,329.6559918001294,329.67555740009993,329.67555740009993,0.025878699962049723,330.6772209000774,331.129483200144,[-0.09143518518518519],[0.38657407407407407],[1],[0],[0],[1.4726168997585773],['Target'],4,004,2024-10-10_21h38.56.109,Visual Search Task,2024.2.1post4,60.05785974917236,2024-10-10 21h39.22.216576 +0530,
185,0,185,[-0.08101851851851852],[0.26157407407407407],[1],[0],[0],[1.3622362003661692],['Target'],185,0,185,0,331.19219389976934,,10,331.1656774999574,331.19219389976934,331.19219389976934,0.03593830019235611,332.1936369999312,332.5287187001668,[-0.08101851851851852],[0.26157407407407407],[1],[0],[0],[1.3622362003661692],['Target'],4,004,2024-10-10_21h38.56.109,Visual Search Task,2024.2.1post4,60.05785974917236,2024-10-10 21h39.22.216576 +0530,
186,0,186,[0.4652777777777778],[-0.3055555555555556],[1],[0],[0],[3.228292599786073],['Target'],186,0,186,0,332.59202959993854,,10,332.56690880004317,332.59202959993854,332.59202959993854,0.037864900194108486,333.5936559997499,335.7959513999522,[0.4652777777777778],[-0.3055555555555556],[1],[0],[0],[3.228292599786073],['Target'],4,004,2024-10-10_21h38.56.109,Visual Search Task,2024.2.1post4,60.05785974917236,2024-10-10 21h39.22.216576 +0530,
187,0,187,[0.1840277777777778],[0.0625],[1],[0],[0],[1.3269105004146695],['Target'],187,0,187,0,335.8581330999732,,10,335.8339917999692,335.8581330999732,335.8581330999732,0.037722500041127205,336.85953840008005,337.1619323999621,[0.1840277777777778],[0.0625],[1],[0],[0],[1.3269105004146695],['Target'],4,004,2024-10-10_21h38.56.109,Visual Search Task,2024.2.1post4,60.05785974917236,2024-10-10 21h39.22.216576 +0530,
188,0,188,[0.11226851851851852],[0.12037037037037036],[1],[0],[0],[2.397880299948156],['Target'],188,0,188,0,337.22461060015485,,10,337.1962365000509,337.22461060015485,337.22461060015485,0.03395339986309409,338.2260500998236,339.5949287000112,[0.11226851851851852],[0.12037037037037036],[1],[0],[0],[2.397880299948156],['Target'],4,004,2024-10-10_21h38.56.109,Visual Search Task,2024.2.1post4,60.05785974917236,2024-10-10 21h39.22.216576 +0530,
189,0,189,[-0.14467592592592593],[0.0011574074074074073],[1],[0],[0],[1.4715610998682678],['Target'],189,0,189,0,339.6409557000734,,5,339.6228237999603,339.6409557000734,339.6409557000734,0.027490700129419565,340.6425351998769,341.09534680005163,[-0.14467592592592593],[0.0011574074074074073],[1],[0],[0],[1.4715610998682678],['Target'],4,004,2024-10-10_21h38.56.109,Visual Search Task,2024.2.1post4,60.05785974917236,2024-10-10 21h39.22.216576 +0530,
190,0,190,[-0.35648148148148145],[0.11574074074074074],[1],[0],[0],[1.3105266001075506],['Target'],190,0,190,0,341.1576988999732,,10,341.13509819982573,341.1576988999732,341.1576988999732,0.03949599992483854,342.15904919989407,342.44640140002593,[-0.35648148148148145],[0.11574074074074074],[1],[0],[0],[1.3105266001075506],['Target'],4,004,2024-10-10_21h38.56.109,Visual Search Task,2024.2.1post4,60.05785974917236,2024-10-10 21h39.22.216576 +0530,
191,0,191,[0.15856481481481483],[-0.14930555555555555],[1],[0],[0],[1.9863158999942243],['Target'],191,0,191,0,342.4905253001489,,5,342.4740051999688,342.4905253001489,342.4905253001489,0.027309800032526255,343.49228050000966,344.4612957998179,[0.15856481481481483],[-0.14930555555555555],[1],[0],[0],[1.9863158999942243],['Target'],4,004,2024-10-10_21h38.56.109,Visual Search Task,2024.2.1post4,60.05785974917236,2024-10-10 21h39.22.216576 +0530,
192,0,192,[-0.41087962962962965],[0.16203703703703703],[1],[0],[0],[1.8920229999348521],['Target'],192,0,192,0,344.50694169988856,,5,344.4857252999209,344.50694169988856,344.50694169988856,0.024118199944496155,345.5084425001405,346.3785700998269,[-0.41087962962962965],[0.16203703703703703],[1],[0],[0],[1.8920229999348521],['Target'],4,004,2024-10-10_21h38.56.109,Visual Search Task,2024.2.1post4,60.05785974917236,2024-10-10 21h39.22.216576 +0530,
193,0,193,[0.27662037037037035],[0.34375],[1],[0],[0],[2.026942899916321],['Target'],193,0,193,0,346.4402544000186,,10,346.41598400007933,346.4402544000186,346.4402544000186,0.037149100098758936,347.44164570001885,348.44371889997274,[0.27662037037037035],[0.34375],[1],[0],[0],[2.026942899916321],['Target'],4,004,2024-10-10_21h38.56.109,Visual Search Task,2024.2.1post4,60.05785974917236,2024-10-10 21h39.22.216576 +0530,
194,0,194,[-0.024305555555555556],[-0.16319444444444445],[1],[0],[0],[1.6574202002957463],['Target'],194,0,194,0,348.50671490002424,,10,348.4849104997702,348.50671490002424,348.50671490002424,0.04086910001933575,349.5080623999238,350.14312859997153,[-0.024305555555555556],[-0.16319444444444445],[1],[0],[0],[1.6574202002957463],['Target'],4,004,2024-10-10_21h38.56.109,Visual Search Task,2024.2.1post4,60.05785974917236,2024-10-10 21h39.22.216576 +0530,
195,0,195,[0.30439814814814814],[-0.03125],[1],[0],[0],[1.5971328001469374],['Target'],195,0,195,0,350.20645890012383,,10,350.17918539978564,350.20645890012383,350.20645890012383,0.03570849960669875,351.2079700999893,351.77716449974105,[0.30439814814814814],[-0.03125],[1],[0],[0],[1.5971328001469374],['Target'],4,004,2024-10-10_21h38.56.109,Visual Search Task,2024.2.1post4,60.05785974917236,2024-10-10 21h39.22.216576 +0530,
196,0,196,[0.12037037037037036],[-0.3368055555555556],[1],[0],[0],[1.5430940999649465],['Target'],196,0,196,0,351.8395563997328,,10,351.815791499801,351.8395563997328,351.8395563997328,0.03829520009458065,352.84102649986744,353.35960019985214,[0.12037037037037036],[-0.3368055555555556],[1],[0],[0],[1.5430940999649465],['Target'],4,004,2024-10-10_21h38.56.109,Visual Search Task,2024.2.1post4,60.05785974917236,2024-10-10 21h39.22.216576 +0530,
197,0,197,[0.3101851851851852],[-0.19907407407407407],[1],[0],[0],[1.4159508999437094],['Target'],197,0,197,0,353.3892963998951,,5,353.37790540000424,353.3892963998951,353.3892963998951,0.01805449975654483,354.39079689979553,354.7946186000481,[0.3101851851851852],[-0.19907407407407407],[1],[0],[0],[1.4159508999437094],['Target'],4,004,2024-10-10_21h38.56.109,Visual Search Task,2024.2.1post4,60.05785974917236,2024-10-10 21h39.22.216576 +0530,
198,0,198,[-0.4722222222222222],[-0.017361111111111112],[1],[0],[0],[1.8375937999226153],['Target'],198,0,198,0,354.8388860998675,,5,354.8208367000334,354.8388860998675,354.8388860998675,0.02599529968574643,355.84064529975876,356.65924139972776,[-0.4722222222222222],[-0.017361111111111112],[1],[0],[0],[1.8375937999226153],['Target'],4,004,2024-10-10_21h38.56.109,Visual Search Task,2024.2.1post4,60.05785974917236,2024-10-10 21h39.22.216576 +0530,
199,0,199,[-0.1527777777777778],[0.08333333333333333],[1],[0],[0],[1.4300843998789787],['Target'],199,0,199,0,356.7220649998635,,10,356.6948897000402,356.7220649998635,356.7220649998635,0.035394900012761354,357.7237925999798,358.125725899823,[-0.1527777777777778],[0.08333333333333333],[1],[0],[0],[1.4300843998789787],['Target'],4,004,2024-10-10_21h38.56.109,Visual Search Task,2024.2.1post4,60.05785974917236,2024-10-10 21h39.22.216576 +0530,
