thisN,thisTrialN,thisRepN,mouse.x,mouse.y,mouse.leftButton,mouse.midButton,mouse.rightButton,mouse.time,mouse.clicked_name,Trials.thisRepN,Trials.thisTrialN,Trials.thisN,Trials.thisIndex,thisRow.t,notes,num_distr,trial.started,Fixation.started,Target.started,mouse.started,Fixation.stopped,trial.stopped,Trials.mouse.x,Trials.mouse.y,Trials.mouse.leftButton,Trials.mouse.midButton,Trials.mouse.rightButton,Trials.mouse.time,Trials.mouse.clicked_name,participant,session,date,expName,psychopyVersion,frameRate,expStart,
0,0,0,[-0.09953703703703703],[0.4386574074074074],[1],[0],[0],[4.078335499856621],['Target'],0,0,0,0,0.07531159976497293,,10,0.048714600037783384,0.07531159976497293,0.07531159976497293,0.048436000011861324,1.0766726997680962,4.127522499766201,[-0.09953703703703703],[0.4386574074074074],[1],[0],[0],[4.078335499856621],['Target'],547174,001,2024-10-09_13h57.50.784,Visual Search Task,2024.2.1post4,59.8205980670766,2024-10-09 13h58.01.474839 +0530,
1,0,1,"[-0.09953703703703703, -0.3773148148148148]","[0.4386574074074074, 0.22453703703703703]","[1, 1]","[0, 0]","[0, 0]","[0.3544588000513613, 2.2220045998692513]","[None, 'Target']",1,0,1,0,4.158546600025147,,5,4.13946279976517,4.158546600025147,4.158546600025147,0.011799199972301722,5.159746800083667,6.362071699928492,"[-0.09953703703703703, -0.3773148148148148]","[0.4386574074074074, 0.22453703703703703]","[1, 1]","[0, 0]","[0, 0]","[0.3544588000513613, 2.2220045998692513]","[None, 'Target']",547174,001,2024-10-09_13h57.50.784,Visual Search Task,2024.2.1post4,59.8205980670766,2024-10-09 13h58.01.474839 +0530,
2,0,2,[-0.27662037037037035],[0.12384259259259259],[1],[0],[0],[1.3567955000326037],['Target'],2,0,2,0,6.408149499911815,,10,6.386693200096488,6.408149499911815,6.408149499911815,0.0244849999435246,7.409653400070965,7.7440196997486055,[-0.27662037037037035],[0.12384259259259259],[1],[0],[0],[1.3567955000326037],['Target'],547174,001,2024-10-09_13h57.50.784,Visual Search Task,2024.2.1post4,59.8205980670766,2024-10-09 13h58.01.474839 +0530,
3,0,3,[-0.04976851851851852],[0.16782407407407407],[1],[0],[0],[2.374388199765235],['Target'],3,0,3,0,7.7911304999142885,,10,7.768993900157511,7.7911304999142885,7.7911304999142885,0.02480809995904565,8.792529900092632,10.143827999942005,[-0.04976851851851852],[0.16782407407407407],[1],[0],[0],[2.374388199765235],['Target'],547174,001,2024-10-09_13h57.50.784,Visual Search Task,2024.2.1post4,59.8205980670766,2024-10-09 13h58.01.474839 +0530,
4,0,4,[-0.3958333333333333],[0.30324074074074076],[1],[0],[0],[1.4021208002232015],['Target'],4,0,4,0,10.174482299946249,,5,10.157456699758768,10.174482299946249,10.174482299946249,0.013474400155246258,11.175456199795008,11.560063499957323,[-0.3958333333333333],[0.30324074074074076],[1],[0],[0],[1.4021208002232015],['Target'],547174,001,2024-10-09_13h57.50.784,Visual Search Task,2024.2.1post4,59.8205980670766,2024-10-09 13h58.01.474839 +0530,
5,0,5,[-0.3738425925925926],[-0.39814814814814814],[1],[0],[0],[3.3024422000162303],['Target'],5,0,5,0,11.591042600106448,,5,11.572997699957341,11.591042600106448,11.591042600106448,0.012922300025820732,12.592002399731427,14.876223200000823,[-0.3738425925925926],[-0.39814814814814814],[1],[0],[0],[3.3024422000162303],['Target'],547174,001,2024-10-09_13h57.50.784,Visual Search Task,2024.2.1post4,59.8205980670766,2024-10-09 13h58.01.474839 +0530,
6,0,6,[0.4837962962962963],[0.27662037037037035],[1],[0],[0],[2.2879555001854897],['Target'],6,0,6,0,14.923759100027382,,10,14.904942399822176,14.923759100027382,14.923759100027382,0.028607900254428387,15.92491289973259,17.193338899873197,[0.4837962962962963],[0.27662037037037035],[1],[0],[0],[2.2879555001854897],['Target'],547174,001,2024-10-09_13h57.50.784,Visual Search Task,2024.2.1post4,59.8205980670766,2024-10-09 13h58.01.474839 +0530,
7,0,7,[0.4849537037037037],[0.056712962962962965],[1],[0],[0],[1.7688437001779675],['Target'],7,0,7,0,17.223598700016737,,5,17.206427599769086,17.223598700016737,17.223598700016737,0.012950500007718801,18.22467749984935,18.97577719995752,[0.4849537037037037],[0.056712962962962965],[1],[0],[0],[1.7688437001779675],['Target'],547174,001,2024-10-09_13h57.50.784,Visual Search Task,2024.2.1post4,59.8205980670766,2024-10-09 13h58.01.474839 +0530,
8,0,8,[-0.2800925925925926],[0.30787037037037035],[1],[0],[0],[1.8083358998410404],['Target'],8,0,8,0,19.02337189996615,,10,19.000136099755764,19.02337189996615,19.02337189996615,0.024239900056272745,20.02447920013219,20.80892249988392,[-0.2800925925925926],[0.30787037037037035],[1],[0],[0],[1.8083358998410404],['Target'],547174,001,2024-10-09_13h57.50.784,Visual Search Task,2024.2.1post4,59.8205980670766,2024-10-09 13h58.01.474839 +0530,
9,0,9,[0.4375],[0.008101851851851851],[1],[0],[0],[2.440862300340086],['Target'],9,0,9,0,20.856235899962485,,10,20.834612799808383,20.856235899962485,20.856235899962485,0.02552879974246025,21.857745899818838,23.275937600061297,[0.4375],[0.008101851851851851],[1],[0],[0],[2.440862300340086],['Target'],547174,001,2024-10-09_13h57.50.784,Visual Search Task,2024.2.1post4,59.8205980670766,2024-10-09 13h58.01.474839 +0530,
10,0,10,[0.03356481481481482],[0.33449074074074076],[1],[0],[0],[1.9738379996269941],['Target'],10,0,10,0,23.322771199978888,,10,23.300962899811566,23.322771199978888,23.322771199978888,0.024885000195354223,24.324086899869144,25.275313099846244,[0.03356481481481482],[0.33449074074074076],[1],[0],[0],[1.9738379996269941],['Target'],547174,001,2024-10-09_13h57.50.784,Visual Search Task,2024.2.1post4,59.8205980670766,2024-10-09 13h58.01.474839 +0530,
11,0,11,[0.0011574074074074073],[-0.44212962962962965],[1],[0],[0],[2.4522378998808563],['Target'],11,0,11,0,25.305958000011742,,5,25.289096899796277,25.305958000011742,25.305958000011742,0.013649700209498405,26.306775599718094,27.741827299818397,[0.0011574074074074073],[-0.44212962962962965],[1],[0],[0],[2.4522378998808563],['Target'],547174,001,2024-10-09_13h57.50.784,Visual Search Task,2024.2.1post4,59.8205980670766,2024-10-09 13h58.01.474839 +0530,
12,0,12,[-0.24421296296296297],[-0.034722222222222224],[1],[0],[0],[2.102497600018978],['Target'],12,0,12,0,27.772451399825513,,5,27.75484830001369,27.772451399825513,27.772451399825513,0.012908200267702341,28.77354170009494,29.857803999911994,[-0.24421296296296297],[-0.034722222222222224],[1],[0],[0],[2.102497600018978],['Target'],547174,001,2024-10-09_13h57.50.784,Visual Search Task,2024.2.1post4,59.8205980670766,2024-10-09 13h58.01.474839 +0530,
13,0,13,[0.3738425925925926],[0.15393518518518517],[1],[0],[0],[2.5735088996589184],['Target'],13,0,13,0,29.905158599838614,,10,29.883852200116962,29.905158599838614,29.905158599838614,0.02593400003388524,30.906570999883115,32.45785509981215,[0.3738425925925926],[0.15393518518518517],[1],[0],[0],[2.5735088996589184],['Target'],547174,001,2024-10-09_13h57.50.784,Visual Search Task,2024.2.1post4,59.8205980670766,2024-10-09 13h58.01.474839 +0530,
14,0,14,[0.3425925925925926],[0.46412037037037035],[1],[0],[0],[4.843351600226015],['Target'],14,0,14,0,32.504826500080526,,10,32.483100299723446,32.504826500080526,32.504826500080526,0.02509329980239272,33.5066336998716,37.32753479992971,[0.3425925925925926],[0.46412037037037035],[1],[0],[0],[4.843351600226015],['Target'],547174,001,2024-10-09_13h57.50.784,Visual Search Task,2024.2.1post4,59.8205980670766,2024-10-09 13h58.01.474839 +0530,
15,0,15,[-0.07407407407407407],[0.30092592592592593],[1],[0],[0],[1.8248228998854756],['Target'],15,0,15,0,37.371034800074995,,5,37.34936620015651,37.371034800074995,37.371034800074995,0.021403599996119738,38.37210060004145,39.17466709995642,[-0.07407407407407407],[0.30092592592592593],[1],[0],[0],[1.8248228998854756],['Target'],547174,001,2024-10-09_13h57.50.784,Visual Search Task,2024.2.1post4,59.8205980670766,2024-10-09 13h58.01.474839 +0530,
16,0,16,[0.2789351851851852],[0.46412037037037035],[1],[0],[0],[2.3403188004158437],['Target'],16,0,16,0,39.220595499966294,,10,39.19898999994621,39.220595499966294,39.220595499966294,0.024210500065237284,40.221852799877524,41.539800399914384,[0.2789351851851852],[0.46412037037037035],[1],[0],[0],[2.3403188004158437],['Target'],547174,001,2024-10-09_13h57.50.784,Visual Search Task,2024.2.1post4,59.8205980670766,2024-10-09 13h58.01.474839 +0530,
17,0,17,[-0.2569444444444444],[0.13541666666666666],[1],[0],[0],[1.670210300013423],['Target'],17,0,17,0,41.57057600002736,,5,41.552603600081056,41.57057600002736,41.57057600002736,0.012651700060814619,42.571517100092024,43.22328929975629,[-0.2569444444444444],[0.13541666666666666],[1],[0],[0],[1.670210300013423],['Target'],547174,001,2024-10-09_13h57.50.784,Visual Search Task,2024.2.1post4,59.8205980670766,2024-10-09 13h58.01.474839 +0530,
18,0,18,[0.16087962962962962],[0.35532407407407407],[1],[0],[0],[1.9065172001719475],['Target'],18,0,18,0,43.27102129999548,,10,43.24879080010578,43.27102129999548,43.27102129999548,0.025377999991178513,44.2715869997628,45.155786799732596,[0.16087962962962962],[0.35532407407407407],[1],[0],[0],[1.9065172001719475],['Target'],547174,001,2024-10-09_13h57.50.784,Visual Search Task,2024.2.1post4,59.8205980670766,2024-10-09 13h58.01.474839 +0530,
19,0,19,[-0.1550925925925926],[0.39699074074074076],[1],[0],[0],[1.6054965001530945],['Target'],19,0,19,0,45.186564499977976,,5,45.16774099972099,45.186564499977976,45.186564499977976,0.011880199890583754,46.187799599952996,46.77391410013661,[-0.1550925925925926],[0.39699074074074076],[1],[0],[0],[1.6054965001530945],['Target'],547174,001,2024-10-09_13h57.50.784,Visual Search Task,2024.2.1post4,59.8205980670766,2024-10-09 13h58.01.474839 +0530,
20,0,20,[0.1076388888888889],[0.13541666666666666],[1],[0],[0],[1.4847472002729774],['Target'],20,0,20,0,46.80307189980522,,5,46.78723770007491,46.80307189980522,46.80307189980522,0.013190300203859806,47.80431619985029,48.27248580008745,[0.1076388888888889],[0.13541666666666666],[1],[0],[0],[1.4847472002729774],['Target'],547174,001,2024-10-09_13h57.50.784,Visual Search Task,2024.2.1post4,59.8205980670766,2024-10-09 13h58.01.474839 +0530,
21,0,21,[-0.4305555555555556],[-0.03356481481481482],[1],[0],[0],[2.3741387999616563],['Target'],21,0,21,0,48.319840299896896,,10,48.2968327999115,48.319840299896896,48.319840299896896,0.024216100107878447,49.32069509988651,50.67152399988845,[-0.4305555555555556],[-0.03356481481481482],[1],[0],[0],[2.3741387999616563],['Target'],547174,001,2024-10-09_13h57.50.784,Visual Search Task,2024.2.1post4,59.8205980670766,2024-10-09 13h58.01.474839 +0530,
22,0,22,[-0.4305555555555556],[0.12731481481481483],[1],[0],[0],[1.50555370002985],['Target'],22,0,22,0,50.70273789996281,,5,50.68312350008637,50.70273789996281,50.70273789996281,0.011463900096714497,51.70404399977997,52.189132399857044,[-0.4305555555555556],[0.12731481481481483],[1],[0],[0],[1.50555370002985],['Target'],547174,001,2024-10-09_13h57.50.784,Visual Search Task,2024.2.1post4,59.8205980670766,2024-10-09 13h58.01.474839 +0530,
23,0,23,[-0.4861111111111111],[-0.21296296296296297],[1],[0],[0],[2.057528799865395],['Target'],23,0,23,0,52.23565729986876,,10,52.213423599954695,52.23565729986876,52.23565729986876,0.024151300080120564,53.23742639971897,54.271451599895954,[-0.4861111111111111],[-0.21296296296296297],[1],[0],[0],[2.057528799865395],['Target'],547174,001,2024-10-09_13h57.50.784,Visual Search Task,2024.2.1post4,59.8205980670766,2024-10-09 13h58.01.474839 +0530,
24,0,24,[-0.26967592592592593],[0.22916666666666666],[1],[0],[0],[2.170487599913031],['Target'],24,0,24,0,54.302074200008065,,5,54.28321010014042,54.302074200008065,54.302074200008065,0.011728200130164623,55.303683400154114,56.45457240007818,[-0.26967592592592593],[0.22916666666666666],[1],[0],[0],[2.170487599913031],['Target'],547174,001,2024-10-09_13h57.50.784,Visual Search Task,2024.2.1post4,59.8205980670766,2024-10-09 13h58.01.474839 +0530,
25,0,25,[0.2523148148148148],[0.27662037037037035],[1],[0],[0],[1.8586281002499163],['Target'],25,0,25,0,56.501782699953765,,10,56.479358199983835,56.501782699953765,56.501782699953765,0.02465900033712387,57.50322309974581,58.338459599763155,[0.2523148148148148],[0.27662037037037035],[1],[0],[0],[1.8586281002499163],['Target'],547174,001,2024-10-09_13h57.50.784,Visual Search Task,2024.2.1post4,59.8205980670766,2024-10-09 13h58.01.474839 +0530,
26,0,26,[0.3460648148148148],[0.11805555555555555],[1],[0],[0],[1.435415199957788],['Target'],26,0,26,0,58.36837669974193,,5,58.351453399751335,58.36837669974193,58.36837669974193,0.012842100113630295,59.36946279974654,59.787331900093704,[0.3460648148148148],[0.11805555555555555],[1],[0],[0],[1.435415199957788],['Target'],547174,001,2024-10-09_13h57.50.784,Visual Search Task,2024.2.1post4,59.8205980670766,2024-10-09 13h58.01.474839 +0530,
27,0,27,[0.4409722222222222],[0.11689814814814815],[1],[0],[0],[1.4703222997486591],['Target'],27,0,27,0,59.8182588997297,,5,59.79944790014997,59.8182588997297,59.8182588997297,0.012036400381475687,60.8191366000101,61.27038270002231,[0.4409722222222222],[0.11689814814814815],[1],[0],[0],[1.4703222997486591],['Target'],547174,001,2024-10-09_13h57.50.784,Visual Search Task,2024.2.1post4,59.8205980670766,2024-10-09 13h58.01.474839 +0530,
28,0,28,[0.1527777777777778],[0.06365740740740741],[1],[0],[0],[1.642630800139159],['Target'],28,0,28,0,61.31794330012053,,10,61.29534499999136,61.31794330012053,61.31794330012053,0.024841800332069397,62.319286100100726,62.93840770004317,[0.1527777777777778],[0.06365740740740741],[1],[0],[0],[1.642630800139159],['Target'],547174,001,2024-10-09_13h57.50.784,Visual Search Task,2024.2.1post4,59.8205980670766,2024-10-09 13h58.01.474839 +0530,
29,0,29,[-0.1712962962962963],[-0.44328703703703703],[1],[0],[0],[5.25200970005244],['Target'],29,0,29,0,62.96753309993073,,5,62.951622900087386,62.96753309993073,62.96753309993073,0.013073300011456013,63.969447900075465,68.20410830015317,[-0.1712962962962963],[-0.44328703703703703],[1],[0],[0],[5.25200970005244],['Target'],547174,001,2024-10-09_13h57.50.784,Visual Search Task,2024.2.1post4,59.8205980670766,2024-10-09 13h58.01.474839 +0530,
30,0,30,[-0.018518518518518517],[-0.4340277777777778],[1],[0],[0],[1.6899806996807456],['Target'],30,0,30,0,68.25023610005155,,10,68.22856679977849,68.25023610005155,68.25023610005155,0.024352699983865023,69.25165760004893,69.91904720012099,[-0.018518518518518517],[-0.4340277777777778],[1],[0],[0],[1.6899806996807456],['Target'],547174,001,2024-10-09_13h57.50.784,Visual Search Task,2024.2.1post4,59.8205980670766,2024-10-09 13h58.01.474839 +0530,
31,0,31,[-0.12037037037037036],[0.22800925925925927],[1],[0],[0],[1.9546089000068605],['Target'],31,0,31,0,69.95027509983629,,5,69.93062889995053,69.95027509983629,69.95027509983629,0.01144499983638525,70.9512002998963,71.88571289973333,[-0.12037037037037036],[0.22800925925925927],[1],[0],[0],[1.9546089000068605],['Target'],547174,001,2024-10-09_13h57.50.784,Visual Search Task,2024.2.1post4,59.8205980670766,2024-10-09 13h58.01.474839 +0530,
32,0,32,[0.03935185185185185],[-0.19560185185185186],[1],[0],[0],[2.2878719000145793],['Target'],32,0,32,0,71.91657719993964,,5,71.89710550010204,71.91657719993964,71.91657719993964,0.011282200459390879,72.91793309990317,74.18545110011473,[0.03935185185185185],[-0.19560185185185186],[1],[0],[0],[2.2878719000145793],['Target'],547174,001,2024-10-09_13h57.50.784,Visual Search Task,2024.2.1post4,59.8205980670766,2024-10-09 13h58.01.474839 +0530,
33,0,33,[0.4224537037037037],[-0.24074074074074073],[1],[0],[0],[2.6410107002593577],['Target'],33,0,33,0,74.23303889995441,,10,74.21031229989603,74.23303889995441,74.23303889995441,0.02474689995869994,75.23415739974007,76.85177939990535,[0.4224537037037037],[-0.24074074074074073],[1],[0],[0],[2.6410107002593577],['Target'],547174,001,2024-10-09_13h57.50.784,Visual Search Task,2024.2.1post4,59.8205980670766,2024-10-09 13h58.01.474839 +0530,
34,0,34,[0.023148148148148147],[0.33101851851851855],[1],[0],[0],[2.686889299657196],['Target'],34,0,34,0,76.88276210008189,,5,76.8642766000703,76.88276210008189,76.88276210008189,0.01241010008379817,77.88356259977445,79.55199659988284,[0.023148148148148147],[0.33101851851851855],[1],[0],[0],[2.686889299657196],['Target'],547174,001,2024-10-09_13h57.50.784,Visual Search Task,2024.2.1post4,59.8205980670766,2024-10-09 13h58.01.474839 +0530,
35,0,35,[-0.24768518518518517],[-0.19675925925925927],[1],[0],[0],[2.5186402001418173],['Target'],35,0,35,0,79.58260669978335,,5,79.5652048997581,79.58260669978335,79.58260669978335,0.013095600064843893,80.58328650007024,82.08433349989355,[-0.24768518518518517],[-0.19675925925925927],[1],[0],[0],[2.5186402001418173],['Target'],547174,001,2024-10-09_13h57.50.784,Visual Search Task,2024.2.1post4,59.8205980670766,2024-10-09 13h58.01.474839 +0530,
36,0,36,[-0.17708333333333334],[-0.40162037037037035],[1],[0],[0],[2.19172429991886],['Target'],36,0,36,0,82.13199249980971,,10,82.10885450011119,82.13199249980971,82.13199249980971,0.02440080000087619,83.13348660012707,84.30116649996489,[-0.17708333333333334],[-0.40162037037037035],[1],[0],[0],[2.19172429991886],['Target'],547174,001,2024-10-09_13h57.50.784,Visual Search Task,2024.2.1post4,59.8205980670766,2024-10-09 13h58.01.474839 +0530,
37,0,37,[0.13773148148148148],[-0.04861111111111111],[1],[0],[0],[2.270240900106728],['Target'],37,0,37,0,84.33175239991397,,5,84.3140829000622,84.33175239991397,84.33175239991397,0.012775199953466654,85.33296949975193,86.58477929979563,[0.13773148148148148],[-0.04861111111111111],[1],[0],[0],[2.270240900106728],['Target'],547174,001,2024-10-09_13h57.50.784,Visual Search Task,2024.2.1post4,59.8205980670766,2024-10-09 13h58.01.474839 +0530,
38,0,38,[-0.16435185185185186],[0.34837962962962965],[1],[0],[0],[1.7352215996943414],['Target'],38,0,38,0,86.61475820001215,,5,86.5978545001708,86.61475820001215,86.61475820001215,0.012943900190293789,87.6157684000209,88.33356000017375,[-0.16435185185185186],[0.34837962962962965],[1],[0],[0],[1.7352215996943414],['Target'],547174,001,2024-10-09_13h57.50.784,Visual Search Task,2024.2.1post4,59.8205980670766,2024-10-09 13h58.01.474839 +0530,
39,0,39,[0.08796296296296297],[0.16898148148148148],[1],[0],[0],[1.9534020000137389],['Target'],39,0,39,0,88.36465180013329,,5,88.34587109973654,88.36465180013329,88.36465180013329,0.012307099997997284,89.36624559992924,90.30004480015486,[0.08796296296296297],[0.16898148148148148],[1],[0],[0],[1.9534020000137389],['Target'],547174,001,2024-10-09_13h57.50.784,Visual Search Task,2024.2.1post4,59.8205980670766,2024-10-09 13h58.01.474839 +0530,
40,0,40,[0.33564814814814814],[0.38425925925925924],[1],[0],[0],[2.403360900003463],['Target'],40,0,40,0,90.33104189997539,,5,90.312646899838,90.33104189997539,90.33104189997539,0.01259690010920167,91.33213370013982,92.71689729997888,[0.33564814814814814],[0.38425925925925924],[1],[0],[0],[2.403360900003463],['Target'],547174,001,2024-10-09_13h57.50.784,Visual Search Task,2024.2.1post4,59.8205980670766,2024-10-09 13h58.01.474839 +0530,
41,0,41,[0.04861111111111111],[-0.36689814814814814],[1],[0],[0],[3.807794999796897],['Target'],41,0,41,0,92.76413069991395,,10,92.74104030011222,92.76413069991395,92.76413069991395,0.02402840042486787,93.76548249972984,96.54928469983861,[0.04861111111111111],[-0.36689814814814814],[1],[0],[0],[3.807794999796897],['Target'],547174,001,2024-10-09_13h57.50.784,Visual Search Task,2024.2.1post4,59.8205980670766,2024-10-09 13h58.01.474839 +0530,
42,0,42,[0.4201388888888889],[-0.2916666666666667],[1],[0],[0],[2.592288500163704],['Target'],42,0,42,0,96.59674490010366,,10,96.573361299932,96.59674490010366,96.59674490010366,0.023935799952596426,97.59836439974606,99.1661660997197,[0.4201388888888889],[-0.2916666666666667],[1],[0],[0],[2.592288500163704],['Target'],547174,001,2024-10-09_13h57.50.784,Visual Search Task,2024.2.1post4,59.8205980670766,2024-10-09 13h58.01.474839 +0530,
43,0,43,[-0.1087962962962963],[0.25810185185185186],[1],[0],[0],[1.885650800075382],['Target'],43,0,43,0,99.1966456999071,,5,99.17927169986069,99.1966456999071,99.1966456999071,0.012964699883013964,100.19765819981694,101.06538480008021,[-0.1087962962962963],[0.25810185185185186],[1],[0],[0],[1.885650800075382],['Target'],547174,001,2024-10-09_13h57.50.784,Visual Search Task,2024.2.1post4,59.8205980670766,2024-10-09 13h58.01.474839 +0530,
44,0,44,[-0.4270833333333333],[0.3599537037037037],[1],[0],[0],[1.6874424000270665],['Target'],44,0,44,0,101.09659030009061,,5,101.07717760000378,101.09659030009061,101.09659030009061,0.011683200020343065,102.09735029982403,102.76522349985316,[-0.4270833333333333],[0.3599537037037037],[1],[0],[0],[1.6874424000270665],['Target'],547174,001,2024-10-09_13h57.50.784,Visual Search Task,2024.2.1post4,59.8205980670766,2024-10-09 13h58.01.474839 +0530,
45,0,45,[-0.1099537037037037],[-0.36342592592592593],[1],[0],[0],[2.187256900127977],['Target'],45,0,45,0,102.79623629990965,,5,102.7770639997907,102.79623629990965,102.79623629990965,0.011791300028562546,103.79711369983852,104.96493500005454,[-0.1099537037037037],[-0.36342592592592593],[1],[0],[0],[2.187256900127977],['Target'],547174,001,2024-10-09_13h57.50.784,Visual Search Task,2024.2.1post4,59.8205980670766,2024-10-09 13h58.01.474839 +0530,
46,0,46,[0.09143518518518519],[0.22685185185185186],[1],[0],[0],[1.669732800219208],['Target'],46,0,46,0,104.9959021997638,,5,104.97789310012013,104.9959021997638,104.9959021997638,0.012911499943584204,105.99659270001575,106.64832939999178,[0.09143518518518519],[0.22685185185185186],[1],[0],[0],[1.669732800219208],['Target'],547174,001,2024-10-09_13h57.50.784,Visual Search Task,2024.2.1post4,59.8205980670766,2024-10-09 13h58.01.474839 +0530,
47,0,47,[0.1400462962962963],[0.03009259259259259],[1],[0],[0],[1.419399299658835],['Target'],47,0,47,0,106.67900320002809,,5,106.66130569996312,106.67900320002809,106.67900320002809,0.01275390014052391,107.67975409980863,108.08129470003769,[0.1400462962962963],[0.03009259259259259],[1],[0],[0],[1.419399299658835],['Target'],547174,001,2024-10-09_13h57.50.784,Visual Search Task,2024.2.1post4,59.8205980670766,2024-10-09 13h58.01.474839 +0530,
48,0,48,[0.3784722222222222],[0.4224537037037037],[1],[0],[0],[2.286208599805832],['Target'],48,0,48,0,108.11207959987223,,5,108.09433110011742,108.11207959987223,108.11207959987223,0.012924099806696177,109.11321750003844,110.38102990016341,[0.3784722222222222],[0.4224537037037037],[1],[0],[0],[2.286208599805832],['Target'],547174,001,2024-10-09_13h57.50.784,Visual Search Task,2024.2.1post4,59.8205980670766,2024-10-09 13h58.01.474839 +0530,
49,0,49,[-0.09490740740740741],[-0.3958333333333333],[1],[0],[0],[2.3194835004396737],['Target'],49,0,49,0,110.41171089978889,,5,110.39371050009504,110.41171089978889,110.41171089978889,0.012613500002771616,111.41272639995441,112.71383150015026,[-0.09490740740740741],[-0.3958333333333333],[1],[0],[0],[2.3194835004396737],['Target'],547174,001,2024-10-09_13h57.50.784,Visual Search Task,2024.2.1post4,59.8205980670766,2024-10-09 13h58.01.474839 +0530,
50,0,50,[0.1527777777777778],[-0.08796296296296297],[1],[0],[0],[1.9918916998431087],['Target'],50,0,50,0,112.76142599992454,,10,112.73883070005104,112.76142599992454,112.76142599992454,0.02488749986514449,113.76273990003392,114.73119929991663,[0.1527777777777778],[-0.08796296296296297],[1],[0],[0],[1.9918916998431087],['Target'],547174,001,2024-10-09_13h57.50.784,Visual Search Task,2024.2.1post4,59.8205980670766,2024-10-09 13h58.01.474839 +0530,
51,0,51,[0.059027777777777776],[0.2488425925925926],[1],[0],[0],[1.5393353002145886],['Target'],51,0,51,0,114.77794829988852,,10,114.75692760013044,114.77794829988852,114.77794829988852,0.025591200217604637,115.77913169981912,116.29679569974542,[0.059027777777777776],[0.2488425925925926],[1],[0],[0],[1.5393353002145886],['Target'],547174,001,2024-10-09_13h57.50.784,Visual Search Task,2024.2.1post4,59.8205980670766,2024-10-09 13h58.01.474839 +0530,
52,0,52,[0.011574074074074073],[-0.40625],[1],[0],[0],[2.6252526002936065],['Target'],52,0,52,0,116.34449809975922,,10,116.32094040000811,116.34449809975922,116.34449809975922,0.023986699990928173,117.34544180007651,118.94666490005329,[0.011574074074074073],[-0.40625],[1],[0],[0],[2.6252526002936065],['Target'],547174,001,2024-10-09_13h57.50.784,Visual Search Task,2024.2.1post4,59.8205980670766,2024-10-09 13h58.01.474839 +0530,
53,0,53,[-0.38657407407407407],[0.46875],[1],[0],[0],[2.708361899945885],['Target'],53,0,53,0,118.99392719985917,,10,118.97084419988096,118.99392719985917,118.99392719985917,0.024029700085520744,119.99568839976564,121.67967199999839,[-0.38657407407407407],[0.46875],[1],[0],[0],[2.708361899945885],['Target'],547174,001,2024-10-09_13h57.50.784,Visual Search Task,2024.2.1post4,59.8205980670766,2024-10-09 13h58.01.474839 +0530,
54,0,54,[-0.1863425925925926],[0.16319444444444445],[1],[0],[0],[3.419628200121224],['Target'],54,0,54,0,121.71033310005441,,5,121.69240880012512,121.71033310005441,121.71033310005441,0.012621600180864334,122.71159109985456,125.11258859978989,[-0.1863425925925926],[0.16319444444444445],[1],[0],[0],[3.419628200121224],['Target'],547174,001,2024-10-09_13h57.50.784,Visual Search Task,2024.2.1post4,59.8205980670766,2024-10-09 13h58.01.474839 +0530,
55,0,55,[0.05555555555555555],[-0.11805555555555555],[1],[0],[0],[6.241223600227386],['Target'],55,0,55,0,125.15978620015085,,10,125.1366412001662,125.15978620015085,125.15978620015085,0.023938999976962805,126.1609545997344,131.37831859989092,[0.05555555555555555],[-0.11805555555555555],[1],[0],[0],[6.241223600227386],['Target'],547174,001,2024-10-09_13h57.50.784,Visual Search Task,2024.2.1post4,59.8205980670766,2024-10-09 13h58.01.474839 +0530,
56,0,56,[-0.17824074074074073],[-0.18287037037037038],[1],[0],[0],[1.740926899947226],['Target'],56,0,56,0,131.4256712999195,,10,131.4030062998645,131.4256712999195,131.4256712999195,0.024543299805372953,132.42715210001916,133.14452259987593,[-0.17824074074074073],[-0.18287037037037038],[1],[0],[0],[1.740926899947226],['Target'],547174,001,2024-10-09_13h57.50.784,Visual Search Task,2024.2.1post4,59.8205980670766,2024-10-09 13h58.01.474839 +0530,
57,0,57,[0.2604166666666667],[0.13773148148148148],[1],[0],[0],[2.4713604003190994],['Target'],57,0,57,0,133.1757498998195,,5,133.15595299983397,133.1757498998195,133.1757498998195,0.0113001000136137,134.176679499913,135.62779780011624,[0.2604166666666667],[0.13773148148148148],[1],[0],[0],[2.4713604003190994],['Target'],547174,001,2024-10-09_13h57.50.784,Visual Search Task,2024.2.1post4,59.8205980670766,2024-10-09 13h58.01.474839 +0530,
58,0,58,[0.09606481481481481],[0.13657407407407407],[1],[0],[0],[1.369698400143534],['Target'],58,0,58,0,135.65859790006652,,5,135.64086559973657,135.65859790006652,135.65859790006652,0.012937699910253286,136.6596065000631,137.011035699863,[0.09606481481481481],[0.13657407407407407],[1],[0],[0],[1.369698400143534],['Target'],547174,001,2024-10-09_13h57.50.784,Visual Search Task,2024.2.1post4,59.8205980670766,2024-10-09 13h58.01.474839 +0530,
59,0,59,[-0.28703703703703703],[0.1388888888888889],[1],[0],[0],[10.275101500097662],['Target'],59,0,59,0,137.05807509971783,,10,137.03507620003074,137.05807509971783,137.05807509971783,0.023931500036269426,138.0595082999207,147.310676000081,[-0.28703703703703703],[0.1388888888888889],[1],[0],[0],[10.275101500097662],['Target'],547174,001,2024-10-09_13h57.50.784,Visual Search Task,2024.2.1post4,59.8205980670766,2024-10-09 13h58.01.474839 +0530,
60,0,60,[0.3738425925925926],[0.32407407407407407],[1],[0],[0],[2.5905168000608683],['Target'],60,0,60,0,147.35723030008376,,10,147.33546129986644,147.35723030008376,147.35723030008376,0.02464580023661256,148.35828740010038,149.9264400997199,[0.3738425925925926],[0.32407407407407407],[1],[0],[0],[2.5905168000608683],['Target'],547174,001,2024-10-09_13h57.50.784,Visual Search Task,2024.2.1post4,59.8205980670766,2024-10-09 13h58.01.474839 +0530,
61,0,61,[0.38425925925925924],[0.2777777777777778],[1],[0],[0],[1.1028549000620842],['Target'],61,0,61,0,149.9570137001574,,5,149.93917539995164,149.9570137001574,149.9570137001574,0.012598100118339062,150.95784689998254,151.04247580002993,[0.38425925925925924],[0.2777777777777778],[1],[0],[0],[1.1028549000620842],['Target'],547174,001,2024-10-09_13h57.50.784,Visual Search Task,2024.2.1post4,59.8205980670766,2024-10-09 13h58.01.474839 +0530,
62,0,62,[-0.13773148148148148],[0.2326388888888889],[1],[0],[0],[1.4197684996761382],['Target'],62,0,62,0,151.07329439977184,,5,151.05659459996969,151.07329439977184,151.07329439977184,0.013972199987620115,152.0745044001378,152.47686900012195,[-0.13773148148148148],[0.2326388888888889],[1],[0],[0],[1.4197684996761382],['Target'],547174,001,2024-10-09_13h57.50.784,Visual Search Task,2024.2.1post4,59.8205980670766,2024-10-09 13h58.01.474839 +0530,
63,0,63,[-0.19907407407407407],[-0.36689814814814814],[1],[0],[0],[2.857008899562061],['Target'],63,0,63,0,152.5231832000427,,10,152.5015036999248,152.5231832000427,152.5231832000427,0.024528200272470713,153.52450709976256,155.35900470009074,[-0.19907407407407407],[-0.36689814814814814],[1],[0],[0],[2.857008899562061],['Target'],547174,001,2024-10-09_13h57.50.784,Visual Search Task,2024.2.1post4,59.8205980670766,2024-10-09 13h58.01.474839 +0530,
64,0,64,"[0.3402777777777778, 0.28935185185185186, 0.30671296296296297, 0.3263888888888889]","[-0.010416666666666666, 0.059027777777777776, 0.04398148148148148, 0.46412037037037035]","[1, 1, 1, 1]","[0, 0, 0, 0]","[0, 0, 0, 0]","[1.769275899976492, 2.8537049000151455, 3.8857061001472175, 5.0185317997820675]","[None, None, None, 'Target']",64,0,64,0,155.3893772000447,,5,155.37195600010455,155.3893772000447,155.3893772000447,0.012809700332581997,156.39060010015965,160.39098809985444,"[0.3402777777777778, 0.28935185185185186, 0.30671296296296297, 0.3263888888888889]","[-0.010416666666666666, 0.059027777777777776, 0.04398148148148148, 0.46412037037037035]","[1, 1, 1, 1]","[0, 0, 0, 0]","[0, 0, 0, 0]","[1.769275899976492, 2.8537049000151455, 3.8857061001472175, 5.0185317997820675]","[None, None, None, 'Target']",547174,001,2024-10-09_13h57.50.784,Visual Search Task,2024.2.1post4,59.8205980670766,2024-10-09 13h58.01.474839 +0530,
65,0,65,[-0.08912037037037036],[0.2152777777777778],[1],[0],[0],[1.3860251996666193],['Target'],65,0,65,0,160.4223613999784,,5,160.40482589975,160.4223613999784,160.4223613999784,0.013674399815499783,161.4230085001327,161.7913653999567,[-0.08912037037037036],[0.2152777777777778],[1],[0],[0],[1.3860251996666193],['Target'],547174,001,2024-10-09_13h57.50.784,Visual Search Task,2024.2.1post4,59.8205980670766,2024-10-09 13h58.01.474839 +0530,
66,0,66,[-0.49074074074074076],[-0.11226851851851852],[1],[0],[0],[1.8570194002240896],['Target'],66,0,66,0,161.83846849994734,,10,161.81650929991156,161.83846849994734,161.83846849994734,0.025030599907040596,162.83976989984512,163.67405309993774,[-0.49074074074074076],[-0.11226851851851852],[1],[0],[0],[1.8570194002240896],['Target'],547174,001,2024-10-09_13h57.50.784,Visual Search Task,2024.2.1post4,59.8205980670766,2024-10-09 13h58.01.474839 +0530,
67,0,67,[-0.12037037037037036],[-0.4537037037037037],[1],[0],[0],[1.9379134001210332],['Target'],67,0,67,0,163.70490540005267,,5,163.68566170008853,163.70490540005267,163.70490540005267,0.011492699850350618,164.70636569987983,165.62414499977604,[-0.12037037037037036],[-0.4537037037037037],[1],[0],[0],[1.9379134001210332],['Target'],547174,001,2024-10-09_13h57.50.784,Visual Search Task,2024.2.1post4,59.8205980670766,2024-10-09 13h58.01.474839 +0530,
68,0,68,[0.12037037037037036],[0.3402777777777778],[1],[0],[0],[1.602934000082314],['Target'],68,0,68,0,165.6547159999609,,5,165.63639379991218,165.6547159999609,165.6547159999609,0.012252900283783674,166.65575130004436,167.2401367998682,[0.12037037037037036],[0.3402777777777778],[1],[0],[0],[1.602934000082314],['Target'],547174,001,2024-10-09_13h57.50.784,Visual Search Task,2024.2.1post4,59.8205980670766,2024-10-09 13h58.01.474839 +0530,
69,0,69,[-0.35648148148148145],[0.40162037037037035],[1],[0],[0],[2.120984600391239],['Target'],69,0,69,0,167.27127659972757,,5,167.25206660013646,167.27127659972757,167.27127659972757,0.011854300275444984,168.2724210997112,169.3735802997835,[-0.35648148148148145],[0.40162037037037035],[1],[0],[0],[2.120984600391239],['Target'],547174,001,2024-10-09_13h57.50.784,Visual Search Task,2024.2.1post4,59.8205980670766,2024-10-09 13h58.01.474839 +0530,
70,0,70,[-0.1111111111111111],[-0.3958333333333333],[1],[0],[0],[2.6242064996622503],['Target'],70,0,70,0,169.42060980014503,,10,169.39809350017458,169.42060980014503,169.42060980014503,0.024386100005358458,170.42209160001948,172.0228637000546,[-0.1111111111111111],[-0.3958333333333333],[1],[0],[0],[2.6242064996622503],['Target'],547174,001,2024-10-09_13h57.50.784,Visual Search Task,2024.2.1post4,59.8205980670766,2024-10-09 13h58.01.474839 +0530,
71,0,71,[0.2974537037037037],[-0.14699074074074073],[1],[0],[0],[3.026473100297153],['Target'],71,0,71,0,172.07057259976864,,10,172.04690890014172,172.07057259976864,172.07057259976864,0.02390610007569194,173.07159789977595,175.07388160005212,[0.2974537037037037],[-0.14699074074074073],[1],[0],[0],[3.026473100297153],['Target'],547174,001,2024-10-09_13h57.50.784,Visual Search Task,2024.2.1post4,59.8205980670766,2024-10-09 13h58.01.474839 +0530,
72,0,72,[-0.09375],[0.0763888888888889],[1],[0],[0],[2.535328600089997],['Target'],72,0,72,0,175.10365539975464,,5,175.08663789974526,175.10365539975464,175.10365539975464,0.012620100285857916,176.1055247997865,177.6224473998882,[-0.09375],[0.0763888888888889],[1],[0],[0],[2.535328600089997],['Target'],547174,001,2024-10-09_13h57.50.784,Visual Search Task,2024.2.1post4,59.8205980670766,2024-10-09 13h58.01.474839 +0530,
73,0,73,[-0.30671296296296297],[-0.4212962962962963],[1],[0],[0],[2.6590020996518433],['Target'],73,0,73,0,177.66972759971395,,10,177.64715689979494,177.66972759971395,177.66972759971395,0.024598799645900726,178.67112269997597,180.3066485999152,[-0.30671296296296297],[-0.4212962962962963],[1],[0],[0],[2.6590020996518433],['Target'],547174,001,2024-10-09_13h57.50.784,Visual Search Task,2024.2.1post4,59.8205980670766,2024-10-09 13h58.01.474839 +0530,
74,0,74,[-0.4201388888888889],[0.1875],[1],[0],[0],[2.50828510010615],['Target'],74,0,74,0,180.3529986999929,,10,180.33068560017273,180.3529986999929,180.3529986999929,0.023898400366306305,181.353857900016,182.83942419989035,[-0.4201388888888889],[0.1875],[1],[0],[0],[2.50828510010615],['Target'],547174,001,2024-10-09_13h57.50.784,Visual Search Task,2024.2.1post4,59.8205980670766,2024-10-09 13h58.01.474839 +0530,
75,0,75,[-0.4861111111111111],[-0.04050925925925926],[1],[0],[0],[1.5187177998013794],['Target'],75,0,75,0,182.86921439971775,,5,182.85267039993778,182.86921439971775,182.86921439971775,0.01309160003438592,183.87061560014263,184.3719016998075,[-0.4861111111111111],[-0.04050925925925926],[1],[0],[0],[1.5187177998013794],['Target'],547174,001,2024-10-09_13h57.50.784,Visual Search Task,2024.2.1post4,59.8205980670766,2024-10-09 13h58.01.474839 +0530,
76,0,76,[-0.015046296296296295],[0.2361111111111111],[1],[0],[0],[2.102865899913013],['Target'],76,0,76,0,184.4022923000157,,5,184.38407499995083,184.4022923000157,184.4022923000157,0.012197799980640411,185.40385540015996,186.48772950004786,[-0.015046296296296295],[0.2361111111111111],[1],[0],[0],[2.102865899913013],['Target'],547174,001,2024-10-09_13h57.50.784,Visual Search Task,2024.2.1post4,59.8205980670766,2024-10-09 13h58.01.474839 +0530,
77,0,77,[0.4224537037037037],[-0.26851851851851855],[1],[0],[0],[5.253919000271708],['Target'],77,0,77,0,186.51878539985046,,5,186.49953919975087,186.51878539985046,186.51878539985046,0.011709300335496664,187.51993939979002,191.75411520013586,[0.4224537037037037],[-0.26851851851851855],[1],[0],[0],[5.253919000271708],['Target'],547174,001,2024-10-09_13h57.50.784,Visual Search Task,2024.2.1post4,59.8205980670766,2024-10-09 13h58.01.474839 +0530,
78,0,78,[-0.2662037037037037],[0.26273148148148145],[1],[0],[0],[2.2013236000202596],['Target'],78,0,78,0,191.78475640015677,,5,191.7695301999338,191.78475640015677,191.78475640015677,0.015249900054186583,192.78583079995587,193.9713034001179,[-0.2662037037037037],[0.26273148148148145],[1],[0],[0],[2.2013236000202596],['Target'],547174,001,2024-10-09_13h57.50.784,Visual Search Task,2024.2.1post4,59.8205980670766,2024-10-09 13h58.01.474839 +0530,
79,0,79,[0.024305555555555556],[0.3541666666666667],[1],[0],[0],[1.8242532000876963],['Target'],79,0,79,0,194.01786320004612,,10,193.99539109971374,194.01786320004612,194.01786320004612,0.02397789992392063,195.01913020014763,195.8200981998816,[0.024305555555555556],[0.3541666666666667],[1],[0],[0],[1.8242532000876963],['Target'],547174,001,2024-10-09_13h57.50.784,Visual Search Task,2024.2.1post4,59.8205980670766,2024-10-09 13h58.01.474839 +0530,
80,0,80,[0.26851851851851855],[-0.024305555555555556],[1],[0],[0],[2.392534200102091],['Target'],80,0,80,0,195.8675182997249,,10,195.84371249983087,195.8675182997249,195.8675182997249,0.023476699832826853,196.86890449980274,198.2367440997623,[0.26851851851851855],[-0.024305555555555556],[1],[0],[0],[2.392534200102091],['Target'],547174,001,2024-10-09_13h57.50.784,Visual Search Task,2024.2.1post4,59.8205980670766,2024-10-09 13h58.01.474839 +0530,
81,0,81,[-0.1388888888888889],[0.44328703703703703],[1],[0],[0],[2.1528063998557627],['Target'],81,0,81,0,198.26722249994054,,5,198.24912980012596,198.26722249994054,198.26722249994054,0.012343599926680326,199.2684067999944,200.40264200000092,[-0.1388888888888889],[0.44328703703703703],[1],[0],[0],[2.1528063998557627],['Target'],547174,001,2024-10-09_13h57.50.784,Visual Search Task,2024.2.1post4,59.8205980670766,2024-10-09 13h58.01.474839 +0530,
82,0,82,[0.4166666666666667],[0.13657407407407407],[1],[0],[0],[3.524351099971682],['Target'],82,0,82,0,200.45049339998513,,10,200.427200099919,200.45049339998513,200.45049339998513,0.024444399867206812,201.45184809993953,203.95209869975224,[0.4166666666666667],[0.13657407407407407],[1],[0],[0],[3.524351099971682],['Target'],547174,001,2024-10-09_13h57.50.784,Visual Search Task,2024.2.1post4,59.8205980670766,2024-10-09 13h58.01.474839 +0530,
83,0,83,[0.4710648148148148],[-0.45601851851851855],[1],[0],[0],[3.6878519002348185],['Target'],83,0,83,0,203.98314369982108,,5,203.9634182001464,203.98314369982108,203.98314369982108,0.01120389997959137,204.98459949996322,207.65182190015912,[0.4710648148148148],[-0.45601851851851855],[1],[0],[0],[3.6878519002348185],['Target'],547174,001,2024-10-09_13h57.50.784,Visual Search Task,2024.2.1post4,59.8205980670766,2024-10-09 13h58.01.474839 +0530,
84,0,84,[0.2326388888888889],[-0.19907407407407407],[1],[0],[0],[3.209650100208819],['Target'],84,0,84,0,207.6994074997492,,10,207.6762167001143,207.6994074997492,207.6994074997492,0.02428850019350648,208.70047099981457,210.88632130017504,[0.2326388888888889],[-0.19907407407407407],[1],[0],[0],[3.209650100208819],['Target'],547174,001,2024-10-09_13h57.50.784,Visual Search Task,2024.2.1post4,59.8205980670766,2024-10-09 13h58.01.474839 +0530,
85,0,85,[-0.028935185185185185],[-0.1388888888888889],[1],[0],[0],[3.2678340999409556],['Target'],85,0,85,0,210.91602479992434,,5,210.89991910010576,210.91602479992434,210.91602479992434,0.01346029993146658,211.91680769994855,214.16820239974186,[-0.028935185185185185],[-0.1388888888888889],[1],[0],[0],[3.2678340999409556],['Target'],547174,001,2024-10-09_13h57.50.784,Visual Search Task,2024.2.1post4,59.8205980670766,2024-10-09 13h58.01.474839 +0530,
86,0,86,[0.2337962962962963],[-0.2326388888888889],[1],[0],[0],[5.257838800083846],['Target'],86,0,86,0,214.21511079976335,,10,214.1921155997552,214.21511079976335,214.21511079976335,0.023808699566870928,215.21633919980377,219.45042209979147,[0.2337962962962963],[-0.2326388888888889],[1],[0],[0],[5.257838800083846],['Target'],547174,001,2024-10-09_13h57.50.784,Visual Search Task,2024.2.1post4,59.8205980670766,2024-10-09 13h58.01.474839 +0530,
87,0,87,"[0.2337962962962963, 0.4085648148148148]","[-0.2326388888888889, -0.24421296296296297]","[1, 1]","[0, 0]","[0, 0]","[1.937336599919945, 2.8044962999410927]","[None, 'Target']",87,0,87,0,219.4812336997129,,5,219.462463399861,219.4812336997129,219.4812336997129,0.011987500358372927,220.4823925998062,222.2676928001456,"[0.2337962962962963, 0.4085648148148148]","[-0.2326388888888889, -0.24421296296296297]","[1, 1]","[0, 0]","[0, 0]","[1.937336599919945, 2.8044962999410927]","[None, 'Target']",547174,001,2024-10-09_13h57.50.784,Visual Search Task,2024.2.1post4,59.8205980670766,2024-10-09 13h58.01.474839 +0530,
88,0,88,[0.26273148148148145],[-0.020833333333333332],[1],[0],[0],[1.6681097000837326],['Target'],88,0,88,0,222.29759529978037,,5,222.28117509977892,222.29759529978037,222.29759529978037,0.01331909978762269,223.2989412001334,223.9497543000616,[0.26273148148148145],[-0.020833333333333332],[1],[0],[0],[1.6681097000837326],['Target'],547174,001,2024-10-09_13h57.50.784,Visual Search Task,2024.2.1post4,59.8205980670766,2024-10-09 13h58.01.474839 +0530,
89,0,89,[-0.35300925925925924],[0.11226851851851852],[1],[0],[0],[5.674697100184858],['Target'],89,0,89,0,223.99757590005174,,10,223.97387029975653,223.99757590005174,223.99757590005174,0.02400929993018508,224.9982881997712,229.6490448997356,[-0.35300925925925924],[0.11226851851851852],[1],[0],[0],[5.674697100184858],['Target'],547174,001,2024-10-09_13h57.50.784,Visual Search Task,2024.2.1post4,59.8205980670766,2024-10-09 13h58.01.474839 +0530,
90,0,90,[-0.13657407407407407],[0.3298611111111111],[1],[0],[0],[2.074843400157988],['Target'],90,0,90,0,229.6967545999214,,10,229.67402479983866,229.6967545999214,229.6967545999214,0.024814799893647432,230.69828670006245,231.74936079978943,[-0.13657407407407407],[0.3298611111111111],[1],[0],[0],[2.074843400157988],['Target'],547174,001,2024-10-09_13h57.50.784,Visual Search Task,2024.2.1post4,59.8205980670766,2024-10-09 13h58.01.474839 +0530,
91,0,91,[-0.37962962962962965],[-0.3298611111111111],[1],[0],[0],[4.902620899956673],['Target'],91,0,91,0,231.77996699977666,,5,231.76210149982944,231.77996699977666,231.77996699977666,0.012604800052940845,232.78074349975213,236.66521449992433,[-0.37962962962962965],[-0.3298611111111111],[1],[0],[0],[4.902620899956673],['Target'],547174,001,2024-10-09_13h57.50.784,Visual Search Task,2024.2.1post4,59.8205980670766,2024-10-09 13h58.01.474839 +0530,
92,0,92,[-0.11458333333333333],[0.06018518518518518],[1],[0],[0],[1.5415825000964105],['Target'],92,0,92,0,236.71228659991175,,10,236.689824400004,236.71228659991175,236.71228659991175,0.024504200089722872,237.71390309976414,238.23186729988083,[-0.11458333333333333],[0.06018518518518518],[1],[0],[0],[1.5415825000964105],['Target'],547174,001,2024-10-09_13h57.50.784,Visual Search Task,2024.2.1post4,59.8205980670766,2024-10-09 13h58.01.474839 +0530,
93,0,93,[0.36574074074074076],[0.019675925925925927],[1],[0],[0],[2.474228100385517],['Target'],93,0,93,0,238.2787987999618,,10,238.25651310011744,238.2787987999618,238.2787987999618,0.024420599918812513,239.27995759993792,240.73123699985445,[0.36574074074074076],[0.019675925925925927],[1],[0],[0],[2.474228100385517],['Target'],547174,001,2024-10-09_13h57.50.784,Visual Search Task,2024.2.1post4,59.8205980670766,2024-10-09 13h58.01.474839 +0530,
94,0,94,[-0.27199074074074076],[0.05092592592592592],[1],[0],[0],[1.7206911002285779],['Target'],94,0,94,0,240.7621031999588,,5,240.7429333999753,240.7621031999588,240.7621031999588,0.011595000047236681,241.763501400128,242.46427439991385,[-0.27199074074074076],[0.05092592592592592],[1],[0],[0],[1.7206911002285779],['Target'],547174,001,2024-10-09_13h57.50.784,Visual Search Task,2024.2.1post4,59.8205980670766,2024-10-09 13h58.01.474839 +0530,
95,0,95,[0.08101851851851852],[-0.35185185185185186],[1],[0],[0],[3.1415249998681247],['Target'],95,0,95,0,242.51151659991592,,10,242.48846009979025,242.51151659991592,242.51151659991592,0.024057199712842703,243.51297709997743,245.63049699971452,[0.08101851851851852],[-0.35185185185185186],[1],[0],[0],[3.1415249998681247],['Target'],547174,001,2024-10-09_13h57.50.784,Visual Search Task,2024.2.1post4,59.8205980670766,2024-10-09 13h58.01.474839 +0530,
96,0,96,[-0.38773148148148145],[0.13773148148148148],[1],[0],[0],[1.8413854003883898],['Target'],96,0,96,0,245.6778679001145,,10,245.65496429987252,245.6778679001145,245.6778679001145,0.024314699694514275,246.67905499972403,247.49684919975698,[-0.38773148148148145],[0.13773148148148148],[1],[0],[0],[1.8413854003883898],['Target'],547174,001,2024-10-09_13h57.50.784,Visual Search Task,2024.2.1post4,59.8205980670766,2024-10-09 13h58.01.474839 +0530,
97,0,97,[0.24421296296296297],[-0.32175925925925924],[1],[0],[0],[2.3038523998111486],['Target'],97,0,97,0,247.52761449990794,,5,247.5095370998606,247.52761449990794,247.52761449990794,0.012617799919098616,248.5286817001179,249.81410409975797,[0.24421296296296297],[-0.32175925925925924],[1],[0],[0],[2.3038523998111486],['Target'],547174,001,2024-10-09_13h57.50.784,Visual Search Task,2024.2.1post4,59.8205980670766,2024-10-09 13h58.01.474839 +0530,
98,0,98,[0.31712962962962965],[-0.27662037037037035],[1],[0],[0],[1.702303399797529],['Target'],98,0,98,0,249.84410549979657,,5,249.82713720016181,249.84410549979657,249.84410549979657,0.012895999941974878,250.8453759998083,251.52994079981,[0.31712962962962965],[-0.27662037037037035],[1],[0],[0],[1.702303399797529],['Target'],547174,001,2024-10-09_13h57.50.784,Visual Search Task,2024.2.1post4,59.8205980670766,2024-10-09 13h58.01.474839 +0530,
99,0,99,[-0.41550925925925924],[0.10648148148148148],[1],[0],[0],[2.6077797999605536],['Target'],99,0,99,0,251.57707190001383,,10,251.55431369971484,251.57707190001383,251.57707190001383,0.02426399989053607,252.57820490002632,254.16254259971902,[-0.41550925925925924],[0.10648148148148148],[1],[0],[0],[2.6077797999605536],['Target'],547174,001,2024-10-09_13h57.50.784,Visual Search Task,2024.2.1post4,59.8205980670766,2024-10-09 13h58.01.474839 +0530,
100,0,100,[-0.35185185185185186],[0.10300925925925926],[1],[0],[0],[2.0037614996545017],['Target'],100,0,100,0,254.1934404997155,,5,254.17474619997665,254.1934404997155,254.1934404997155,0.012095799669623375,255.194548800122,256.1792431999929,[-0.35185185185185186],[0.10300925925925926],[1],[0],[0],[2.0037614996545017],['Target'],547174,001,2024-10-09_13h57.50.784,Visual Search Task,2024.2.1post4,59.8205980670766,2024-10-09 13h58.01.474839 +0530,
101,0,101,[0.20023148148148148],[0.38773148148148145],[1],[0],[0],[2.4043052000924945],['Target'],101,0,101,0,256.2101865001023,,5,256.19087099982426,256.2101865001023,256.2101865001023,0.011592799797654152,257.21151269972324,258.59593549976125,[0.20023148148148148],[0.38773148148148145],[1],[0],[0],[2.4043052000924945],['Target'],547174,001,2024-10-09_13h57.50.784,Visual Search Task,2024.2.1post4,59.8205980670766,2024-10-09 13h58.01.474839 +0530,
102,0,102,[-0.47337962962962965],[0.3055555555555556],[1],[0],[0],[2.1041431999765337],['Target'],102,0,102,0,258.6261299001053,,5,258.60884229978547,258.6261299001053,258.6261299001053,0.012797399889677763,259.6272474997677,260.7134206001647,[-0.47337962962962965],[0.3055555555555556],[1],[0],[0],[2.1041431999765337],['Target'],547174,001,2024-10-09_13h57.50.784,Visual Search Task,2024.2.1post4,59.8205980670766,2024-10-09 13h58.01.474839 +0530,
103,0,103,[-0.3287037037037037],[0.1863425925925926],[1],[0],[0],[5.858019100036472],['Target'],103,0,103,0,260.7592247999273,,10,260.73740629991516,260.7592247999273,260.7592247999273,0.02388329990208149,261.7608317998238,266.59582100016996,[-0.3287037037037037],[0.1863425925925926],[1],[0],[0],[5.858019100036472],['Target'],547174,001,2024-10-09_13h57.50.784,Visual Search Task,2024.2.1post4,59.8205980670766,2024-10-09 13h58.01.474839 +0530,
104,0,104,[-0.375],[-0.019675925925925927],[1],[0],[0],[2.0543629000894725],['Target'],104,0,104,0,266.6252274001017,,5,266.6090561999008,266.6252274001017,266.6252274001017,0.013099799863994122,267.62637059995905,268.6647691000253,[-0.375],[-0.019675925925925927],[1],[0],[0],[2.0543629000894725],['Target'],547174,001,2024-10-09_13h57.50.784,Visual Search Task,2024.2.1post4,59.8205980670766,2024-10-09 13h58.01.474839 +0530,
105,0,105,[0.06365740740740741],[-0.4351851851851852],[1],[0],[0],[2.354846099857241],['Target'],105,0,105,0,268.72469739988446,,10,268.70508729992434,268.72469739988446,268.72469739988446,0.03980050003156066,269.7263795998879,271.0603891001083,[0.06365740740740741],[-0.4351851851851852],[1],[0],[0],[2.354846099857241],['Target'],547174,001,2024-10-09_13h57.50.784,Visual Search Task,2024.2.1post4,59.8205980670766,2024-10-09 13h58.01.474839 +0530,
106,0,106,[-0.2465277777777778],[-0.09490740740740741],[1],[0],[0],[1.6742557999677956],['Target'],106,0,106,0,271.1082067997195,,10,271.0854400000535,271.1082067997195,271.1082067997195,0.024912700057029724,272.109434499871,272.7601717999205,[-0.2465277777777778],[-0.09490740740740741],[1],[0],[0],[1.6742557999677956],['Target'],547174,001,2024-10-09_13h57.50.784,Visual Search Task,2024.2.1post4,59.8205980670766,2024-10-09 13h58.01.474839 +0530,
107,0,107,[-0.41898148148148145],[-0.23842592592592593],[1],[0],[0],[1.4915601001121104],['Target'],107,0,107,0,272.80782500002533,,10,272.7847060998902,272.80782500002533,272.80782500002533,0.024398600216954947,273.8089513001032,274.27680849982426,[-0.41898148148148145],[-0.23842592592592593],[1],[0],[0],[1.4915601001121104],['Target'],547174,001,2024-10-09_13h57.50.784,Visual Search Task,2024.2.1post4,59.8205980670766,2024-10-09 13h58.01.474839 +0530,
108,0,108,[-0.2025462962962963],[0.3298611111111111],[1],[0],[0],[1.7755328002385795],['Target'],108,0,108,0,274.32417060015723,,10,274.3007112997584,274.32417060015723,274.32417060015723,0.023763699922710657,275.32555940002203,276.0767296999693,[-0.2025462962962963],[0.3298611111111111],[1],[0],[0],[1.7755328002385795],['Target'],547174,001,2024-10-09_13h57.50.784,Visual Search Task,2024.2.1post4,59.8205980670766,2024-10-09 13h58.01.474839 +0530,
109,0,109,[-0.37962962962962965],[0.35648148148148145],[1],[0],[0],[1.475410500075668],['Target'],109,0,109,0,276.12378429993987,,10,276.10077319992706,276.12378429993987,276.12378429993987,0.023926999885588884,277.1253082999028,277.5767450998537,[-0.37962962962962965],[0.35648148148148145],[1],[0],[0],[1.475410500075668],['Target'],547174,001,2024-10-09_13h57.50.784,Visual Search Task,2024.2.1post4,59.8205980670766,2024-10-09 13h58.01.474839 +0530,
110,0,110,[-0.061342592592592594],[-0.20717592592592593],[1],[0],[0],[1.9911103998310864],['Target'],110,0,110,0,277.6238285000436,,10,277.6013621999882,277.6238285000436,277.6238285000436,0.024481299798935652,278.6248969999142,279.59301859978586,[-0.061342592592592594],[-0.20717592592592593],[1],[0],[0],[1.9911103998310864],['Target'],547174,001,2024-10-09_13h57.50.784,Visual Search Task,2024.2.1post4,59.8205980670766,2024-10-09 13h58.01.474839 +0530,
111,0,111,[0.47453703703703703],[-0.3912037037037037],[1],[0],[0],[2.2861167998053133],['Target'],111,0,111,0,279.62377709988505,,5,279.6061252001673,279.62377709988505,279.62377709988505,0.012973799835890532,280.6247009001672,281.8927393001504,[0.47453703703703703],[-0.3912037037037037],[1],[0],[0],[2.2861167998053133],['Target'],547174,001,2024-10-09_13h57.50.784,Visual Search Task,2024.2.1post4,59.8205980670766,2024-10-09 13h58.01.474839 +0530,
112,0,112,[0.21875],[-0.4537037037037037],[1],[0],[0],[2.936853800434619],['Target'],112,0,112,0,281.9234127998352,,5,281.9048524997197,281.9234127998352,281.9234127998352,0.012090899981558323,282.92454290017486,284.84258059971035,[0.21875],[-0.4537037037037037],[1],[0],[0],[2.936853800434619],['Target'],547174,001,2024-10-09_13h57.50.784,Visual Search Task,2024.2.1post4,59.8205980670766,2024-10-09 13h58.01.474839 +0530,
113,0,113,[-0.3263888888888889],[0.33796296296296297],[1],[0],[0],[1.9530817996710539],['Target'],113,0,113,0,284.87272999994457,,5,284.85492599988356,284.87272999994457,284.87272999994457,0.012323500122874975,285.8743424997665,286.80860790004954,[-0.3263888888888889],[0.33796296296296297],[1],[0],[0],[1.9530817996710539],['Target'],547174,001,2024-10-09_13h57.50.784,Visual Search Task,2024.2.1post4,59.8205980670766,2024-10-09 13h58.01.474839 +0530,
114,0,114,[-0.11689814814814815],[-0.45949074074074076],[1],[0],[0],[2.24081140011549],['Target'],114,0,114,0,286.85609380016103,,10,286.8336688997224,286.85609380016103,286.85609380016103,0.024918300099670887,287.8570877001621,289.0750361001119,[-0.11689814814814815],[-0.45949074074074076],[1],[0],[0],[2.24081140011549],['Target'],547174,001,2024-10-09_13h57.50.784,Visual Search Task,2024.2.1post4,59.8205980670766,2024-10-09 13h58.01.474839 +0530,
115,0,115,[0.22800925925925927],[-0.07291666666666667],[1],[0],[0],[2.8525433000177145],['Target'],115,0,115,0,289.105833100155,,5,289.0884019997902,289.105833100155,289.105833100155,0.013247199822217226,290.1071858997457,291.94149280013517,[0.22800925925925927],[-0.07291666666666667],[1],[0],[0],[2.8525433000177145],['Target'],547174,001,2024-10-09_13h57.50.784,Visual Search Task,2024.2.1post4,59.8205980670766,2024-10-09 13h58.01.474839 +0530,
116,0,116,[0.13773148148148148],[0.22106481481481483],[1],[0],[0],[1.8527456996962428],['Target'],116,0,116,0,291.97230259981006,,5,291.9538686000742,291.97230259981006,291.97230259981006,0.012463999912142754,292.9732570000924,293.8074663998559,[0.13773148148148148],[0.22106481481481483],[1],[0],[0],[1.8527456996962428],['Target'],547174,001,2024-10-09_13h57.50.784,Visual Search Task,2024.2.1post4,59.8205980670766,2024-10-09 13h58.01.474839 +0530,
117,0,117,[0.46296296296296297],[-0.22453703703703703],[1],[0],[0],[2.2246153000742197],['Target'],117,0,117,0,293.85505439992994,,10,293.8322459999472,293.85505439992994,293.85505439992994,0.024669900070875883,294.8561296998523,296.0573005997576,[0.46296296296296297],[-0.22453703703703703],[1],[0],[0],[2.2246153000742197],['Target'],547174,001,2024-10-09_13h57.50.784,Visual Search Task,2024.2.1post4,59.8205980670766,2024-10-09 13h58.01.474839 +0530,
118,0,118,[-0.29050925925925924],[0.38425925925925924],[1],[0],[0],[2.170193400233984],['Target'],118,0,118,0,296.0880848001689,,5,296.06959979981184,296.0880848001689,296.0880848001689,0.012212600093334913,297.0896958997473,298.24046109989285,[-0.29050925925925924],[0.38425925925925924],[1],[0],[0],[2.170193400233984],['Target'],547174,001,2024-10-09_13h57.50.784,Visual Search Task,2024.2.1post4,59.8205980670766,2024-10-09 13h58.01.474839 +0530,
119,0,119,[-0.4224537037037037],[-0.3993055555555556],[1],[0],[0],[4.02529130037874],['Target'],119,0,119,0,298.28757769986987,,10,298.2652536998503,298.28757769986987,298.28757769986987,0.024679599795490503,299.2891123997979,302.29106689989567,[-0.4224537037037037],[-0.3993055555555556],[1],[0],[0],[4.02529130037874],['Target'],547174,001,2024-10-09_13h57.50.784,Visual Search Task,2024.2.1post4,59.8205980670766,2024-10-09 13h58.01.474839 +0530,
120,0,120,[-0.04282407407407408],[-0.2222222222222222],[1],[0],[0],[2.3070535003207624],['Target'],120,0,120,0,302.3370614000596,,10,302.31522220000625,302.3370614000596,302.3370614000596,0.024026500061154366,303.33851969987154,304.6227661999874,[-0.04282407407407408],[-0.2222222222222222],[1],[0],[0],[2.3070535003207624],['Target'],547174,001,2024-10-09_13h57.50.784,Visual Search Task,2024.2.1post4,59.8205980670766,2024-10-09 13h58.01.474839 +0530,
121,0,121,[0.2349537037037037],[-0.46875],[1],[0],[0],[2.6216183998622],['Target'],121,0,121,0,304.6537203998305,,5,304.6360096000135,304.6537203998305,304.6537203998305,0.013112999964505434,305.65529910009354,307.2581819999032,[0.2349537037037037],[-0.46875],[1],[0],[0],[2.6216183998622],['Target'],547174,001,2024-10-09_13h57.50.784,Visual Search Task,2024.2.1post4,59.8205980670766,2024-10-09 13h58.01.474839 +0530,
122,0,122,[-0.36226851851851855],[-0.12384259259259259],[1],[0],[0],[2.483864299952984],['Target'],122,0,122,0,307.2865810999647,,5,307.27141609974205,307.2865810999647,307.2865810999647,0.013114300090819597,308.28786849975586,309.7557541998103,[-0.36226851851851855],[-0.12384259259259259],[1],[0],[0],[2.483864299952984],['Target'],547174,001,2024-10-09_13h57.50.784,Visual Search Task,2024.2.1post4,59.8205980670766,2024-10-09 13h58.01.474839 +0530,
123,0,123,[-0.21412037037037038],[-0.3784722222222222],[1],[0],[0],[3.591359700076282],['Target'],123,0,123,0,309.80282629979774,,10,309.78036289988086,309.80282629979774,309.80282629979774,0.02450129995122552,310.8045362001285,313.37219489971176,[-0.21412037037037038],[-0.3784722222222222],[1],[0],[0],[3.591359700076282],['Target'],547174,001,2024-10-09_13h57.50.784,Visual Search Task,2024.2.1post4,59.8205980670766,2024-10-09 13h58.01.474839 +0530,
124,0,124,[0.32175925925925924],[-0.38425925925925924],[1],[0],[0],[2.790828499943018],['Target'],124,0,124,0,313.419222000055,,10,313.3969938997179,313.419222000055,313.419222000055,0.02466579992324114,314.4206782998517,316.18833169993013,[0.32175925925925924],[-0.38425925925925924],[1],[0],[0],[2.790828499943018],['Target'],547174,001,2024-10-09_13h57.50.784,Visual Search Task,2024.2.1post4,59.8205980670766,2024-10-09 13h58.01.474839 +0530,
125,0,125,[-0.1574074074074074],[-0.26273148148148145],[1],[0],[0],[1.622800000011921],['Target'],125,0,125,0,316.23551509995013,,10,316.2147944997996,316.23551509995013,316.23551509995013,0.026276399847120047,317.2366675999947,317.83807600010186,[-0.1574074074074074],[-0.26273148148148145],[1],[0],[0],[1.622800000011921],['Target'],547174,001,2024-10-09_13h57.50.784,Visual Search Task,2024.2.1post4,59.8205980670766,2024-10-09 13h58.01.474839 +0530,
126,0,126,[0.03587962962962963],[0.375],[1],[0],[0],[2.1702343998476863],['Target'],126,0,126,0,317.86909910012037,,5,317.8501241998747,317.86909910012037,317.86909910012037,0.01196860009804368,318.8697542999871,320.0210886998102,[0.03587962962962963],[0.375],[1],[0],[0],[2.1702343998476863],['Target'],547174,001,2024-10-09_13h57.50.784,Visual Search Task,2024.2.1post4,59.8205980670766,2024-10-09 13h58.01.474839 +0530,
127,0,127,[-0.4166666666666667],[-0.4826388888888889],[1],[0],[0],[2.4256494003348053],['Target'],127,0,127,0,320.06866239989176,,10,320.045072699897,320.06866239989176,320.06866239989176,0.023873399943113327,321.06959079997614,322.47121920017526,[-0.4166666666666667],[-0.4826388888888889],[1],[0],[0],[2.4256494003348053],['Target'],547174,001,2024-10-09_13h57.50.784,Visual Search Task,2024.2.1post4,59.8205980670766,2024-10-09 13h58.01.474839 +0530,
128,0,128,[-0.2800925925925926],[0.45717592592592593],[1],[0],[0],[2.88648399990052],['Target'],128,0,128,0,322.5017907000147,,5,322.48428189987317,322.5017907000147,322.5017907000147,0.012938899919390678,323.50249469978735,325.3712713001296,[-0.2800925925925926],[0.45717592592592593],[1],[0],[0],[2.88648399990052],['Target'],547174,001,2024-10-09_13h57.50.784,Visual Search Task,2024.2.1post4,59.8205980670766,2024-10-09 13h58.01.474839 +0530,
129,0,129,[-0.35648148148148145],[-0.125],[1],[0],[0],[1.6743167000822723],['Target'],129,0,129,0,325.4172843997367,,10,325.3954918999225,325.4172843997367,325.4172843997367,0.0241137002594769,326.41929889982566,327.070257099811,[-0.35648148148148145],[-0.125],[1],[0],[0],[1.6743167000822723],['Target'],547174,001,2024-10-09_13h57.50.784,Visual Search Task,2024.2.1post4,59.8205980670766,2024-10-09 13h58.01.474839 +0530,
130,0,130,[-0.09837962962962964],[0.45717592592592593],[1],[0],[0],[4.318794200196862],['Target'],130,0,130,0,327.1012939000502,,5,327.0837036999874,327.1012939000502,327.1012939000502,0.013291599694639444,328.10209809988737,331.40299199987203,[-0.09837962962962964],[0.45717592592592593],[1],[0],[0],[4.318794200196862],['Target'],547174,001,2024-10-09_13h57.50.784,Visual Search Task,2024.2.1post4,59.8205980670766,2024-10-09 13h58.01.474839 +0530,
131,0,131,[0.18055555555555555],[0.0775462962962963],[1],[0],[0],[1.6575922002084553],['Target'],131,0,131,0,331.4505175999366,,10,331.42766509996727,331.4505175999366,331.4505175999366,0.024554099887609482,332.4519233000465,333.0858167000115,[0.18055555555555555],[0.0775462962962963],[1],[0],[0],[1.6575922002084553],['Target'],547174,001,2024-10-09_13h57.50.784,Visual Search Task,2024.2.1post4,59.8205980670766,2024-10-09 13h58.01.474839 +0530,
132,0,132,[0.08101851851851852],[0.10069444444444445],[1],[0],[0],[1.491823900025338],['Target'],132,0,132,0,333.13345139985904,,10,333.11074100015685,333.13345139985904,333.13345139985904,0.02478979993611574,334.1345651000738,334.6030719000846,[0.08101851851851852],[0.10069444444444445],[1],[0],[0],[1.491823900025338],['Target'],547174,001,2024-10-09_13h57.50.784,Visual Search Task,2024.2.1post4,59.8205980670766,2024-10-09 13h58.01.474839 +0530,
133,0,133,[-0.16435185185185186],[0.20717592592592593],[1],[0],[0],[1.6527076000347733],['Target'],133,0,133,0,334.63309929985553,,5,334.61608669999987,334.63309929985553,334.63309929985553,0.012885100208222866,335.63444550009444,336.26928070001304,[-0.16435185185185186],[0.20717592592592593],[1],[0],[0],[1.6527076000347733],['Target'],547174,001,2024-10-09_13h57.50.784,Visual Search Task,2024.2.1post4,59.8205980670766,2024-10-09 13h58.01.474839 +0530,
134,0,134,[-0.43287037037037035],[0.11689814814814815],[1],[0],[0],[1.7752425000071526],['Target'],134,0,134,0,336.3162014000118,,10,336.2936319001019,336.3162014000118,336.3162014000118,0.024237100034952164,337.31808350002393,338.069378899876,[-0.43287037037037035],[0.11689814814814815],[1],[0],[0],[1.7752425000071526],['Target'],547174,001,2024-10-09_13h57.50.784,Visual Search Task,2024.2.1post4,59.8205980670766,2024-10-09 13h58.01.474839 +0530,
135,0,135,[0.4097222222222222],[0.38310185185185186],[1],[0],[0],[3.974209299776703],['Target'],135,0,135,0,338.1162719000131,,10,338.0935237999074,338.1162719000131,338.1162719000131,0.024011800065636635,339.11723909992725,342.0682069999166,[0.4097222222222222],[0.38310185185185186],[1],[0],[0],[3.974209299776703],['Target'],547174,001,2024-10-09_13h57.50.784,Visual Search Task,2024.2.1post4,59.8205980670766,2024-10-09 13h58.01.474839 +0530,
136,0,136,[-0.4513888888888889],[-0.11574074074074074],[1],[0],[0],[2.119505800306797],['Target'],136,0,136,0,342.0992529001087,,5,342.0815594997257,342.0992529001087,342.0992529001087,0.013203599955886602,343.1004067999311,344.2015570998192,[-0.4513888888888889],[-0.11574074074074074],[1],[0],[0],[2.119505800306797],['Target'],547174,001,2024-10-09_13h57.50.784,Visual Search Task,2024.2.1post4,59.8205980670766,2024-10-09 13h58.01.474839 +0530,
137,0,137,[0.1111111111111111],[0.24537037037037038],[1],[0],[0],[1.8533739000558853],['Target'],137,0,137,0,344.2317495997995,,5,344.21354189980775,344.2317495997995,344.2317495997995,0.011939899995923042,345.2331294999458,346.06757330009714,[0.1111111111111111],[0.24537037037037038],[1],[0],[0],[1.8533739000558853],['Target'],547174,001,2024-10-09_13h57.50.784,Visual Search Task,2024.2.1post4,59.8205980670766,2024-10-09 13h58.01.474839 +0530,
138,0,138,[0.3611111111111111],[0.05092592592592592],[1],[0],[0],[1.7380911000072956],['Target'],138,0,138,0,346.09883539984,,5,346.07886020001024,346.09883539984,346.09883539984,0.011181300040334463,347.10015039984137,347.8173937997781,[0.3611111111111111],[0.05092592592592592],[1],[0],[0],[1.7380911000072956],['Target'],547174,001,2024-10-09_13h57.50.784,Visual Search Task,2024.2.1post4,59.8205980670766,2024-10-09 13h58.01.474839 +0530,
139,0,139,[0.08680555555555555],[-0.3738425925925926],[1],[0],[0],[2.0369333000853658],['Target'],139,0,139,0,347.8485217001289,,5,347.8295164001174,347.8485217001289,347.8485217001289,0.011999199632555246,348.8492227997631,349.86708119977266,[0.08680555555555555],[-0.3738425925925926],[1],[0],[0],[2.0369333000853658],['Target'],547174,001,2024-10-09_13h57.50.784,Visual Search Task,2024.2.1post4,59.8205980670766,2024-10-09 13h58.01.474839 +0530,
140,0,140,[0.3900462962962963],[0.2708333333333333],[1],[0],[0],[1.658076100051403],['Target'],140,0,140,0,349.91492290003225,,10,349.8916436997242,349.91492290003225,349.91492290003225,0.02445509983226657,350.91613740008324,351.5502952998504,[0.3900462962962963],[0.2708333333333333],[1],[0],[0],[1.658076100051403],['Target'],547174,001,2024-10-09_13h57.50.784,Visual Search Task,2024.2.1post4,59.8205980670766,2024-10-09 13h58.01.474839 +0530,
141,0,141,[-0.22800925925925927],[-0.27199074074074076],[1],[0],[0],[1.3719146996736526],['Target'],141,0,141,0,351.5812693000771,,5,351.56180359981954,351.5812693000771,351.5812693000771,0.011375399772077799,352.58286469988525,352.93419139971957,[-0.22800925925925927],[-0.27199074074074076],[1],[0],[0],[1.3719146996736526],['Target'],547174,001,2024-10-09_13h57.50.784,Visual Search Task,2024.2.1post4,59.8205980670766,2024-10-09 13h58.01.474839 +0530,
142,0,142,[0.12152777777777778],[0.4201388888888889],[1],[0],[0],[1.3399709998629987],['Target'],142,0,142,0,352.981022299733,,10,352.9592494997196,352.981022299733,352.981022299733,0.024952600244432688,353.9822901999578,354.29975270014256,[0.12152777777777778],[0.4201388888888889],[1],[0],[0],[1.3399709998629987],['Target'],547174,001,2024-10-09_13h57.50.784,Visual Search Task,2024.2.1post4,59.8205980670766,2024-10-09 13h58.01.474839 +0530,
143,0,143,[0.1597222222222222],[0.28125],[1],[0],[0],[1.3698225999251008],['Target'],143,0,143,0,354.33064329996705,,5,354.31252390006557,354.33064329996705,354.33064329996705,0.01272389991208911,355.33182279998437,355.68310720007867,[0.1597222222222222],[0.28125],[1],[0],[0],[1.3698225999251008],['Target'],547174,001,2024-10-09_13h57.50.784,Visual Search Task,2024.2.1post4,59.8205980670766,2024-10-09 13h58.01.474839 +0530,
144,0,144,"[-0.4652777777777778, -0.4537037037037037]","[0.07291666666666667, 0.09953703703703703]","[1, 1]","[0, 0]","[0, 0]","[1.355510300025344, 2.1712658000178635]","[None, 'Target']",144,0,144,0,355.71443819999695,,5,355.6947290999815,355.71443819999695,355.71443819999695,0.011493399739265442,356.71509950002655,357.8665149998851,"[-0.4652777777777778, -0.4537037037037037]","[0.07291666666666667, 0.09953703703703703]","[1, 1]","[0, 0]","[0, 0]","[1.355510300025344, 2.1712658000178635]","[None, 'Target']",547174,001,2024-10-09_13h57.50.784,Visual Search Task,2024.2.1post4,59.8205980670766,2024-10-09 13h58.01.474839 +0530,
145,0,145,[0.375],[0.0625],[1],[0],[0],[1.3858035998418927],['Target'],145,0,145,0,357.89691499993205,,5,357.87994650006294,357.89691499993205,357.89691499993205,0.01329750008881092,358.898584399838,359.26622459990904,[0.375],[0.0625],[1],[0],[0],[1.3858035998418927],['Target'],547174,001,2024-10-09_13h57.50.784,Visual Search Task,2024.2.1post4,59.8205980670766,2024-10-09 13h58.01.474839 +0530,
146,0,146,[0.49421296296296297],[-0.17708333333333334],[1],[0],[0],[1.324390800204128],['Target'],146,0,146,0,359.3136331997812,,10,359.29077860014513,359.3136331997812,359.3136331997812,0.024448600132018328,360.3145906999707,360.61562589975074,[0.49421296296296297],[-0.17708333333333334],[1],[0],[0],[1.324390800204128],['Target'],547174,001,2024-10-09_13h57.50.784,Visual Search Task,2024.2.1post4,59.8205980670766,2024-10-09 13h58.01.474839 +0530,
147,0,147,[0.3055555555555556],[-0.1909722222222222],[1],[0],[0],[1.3915620003826916],['Target'],147,0,147,0,360.6638259999454,,10,360.64039839990437,360.6638259999454,360.6638259999454,0.024533099960535765,361.6646905001253,362.032439999748,[0.3055555555555556],[-0.1909722222222222],[1],[0],[0],[1.3915620003826916],['Target'],547174,001,2024-10-09_13h57.50.784,Visual Search Task,2024.2.1post4,59.8205980670766,2024-10-09 13h58.01.474839 +0530,
148,0,148,[0.11805555555555555],[-0.2916666666666667],[1],[0],[0],[3.540940700098872],['Target'],148,0,148,0,362.0795988999307,,10,362.0572179001756,362.0795988999307,362.0795988999307,0.024643299635499716,363.08119509974495,365.5986271998845,[0.11805555555555555],[-0.2916666666666667],[1],[0],[0],[3.540940700098872],['Target'],547174,001,2024-10-09_13h57.50.784,Visual Search Task,2024.2.1post4,59.8205980670766,2024-10-09 13h58.01.474839 +0530,
149,0,149,[-0.46875],[0.03819444444444445],[1],[0],[0],[1.5702201998792589],['Target'],149,0,149,0,365.62947499984875,,5,365.6106132999994,365.62947499984875,365.62947499984875,0.011910699773579836,366.6307802000083,367.18149850005284,[-0.46875],[0.03819444444444445],[1],[0],[0],[1.5702201998792589],['Target'],547174,001,2024-10-09_13h57.50.784,Visual Search Task,2024.2.1post4,59.8205980670766,2024-10-09 13h58.01.474839 +0530,
150,0,150,[0.3958333333333333],[0.12962962962962962],[1],[0],[0],[1.7541224998421967],['Target'],150,0,150,0,367.21236369991675,,5,367.19381659990177,367.21236369991675,367.21236369991675,0.012267300393432379,368.21407049987465,368.94862399995327,[0.3958333333333333],[0.12962962962962962],[1],[0],[0],[1.7541224998421967],['Target'],547174,001,2024-10-09_13h57.50.784,Visual Search Task,2024.2.1post4,59.8205980670766,2024-10-09 13h58.01.474839 +0530,
151,0,151,[-0.23726851851851852],[-0.4537037037037037],[0],[0],[1],[2.090182099957019],['Target'],151,0,151,0,368.9957109000534,,10,368.9738273997791,368.9957109000534,368.9957109000534,0.025095699820667505,369.99699300015345,371.06448839977384,[-0.23726851851851852],[-0.4537037037037037],[0],[0],[1],[2.090182099957019],['Target'],547174,001,2024-10-09_13h57.50.784,Visual Search Task,2024.2.1post4,59.8205980670766,2024-10-09 13h58.01.474839 +0530,
152,0,152,[-0.006944444444444444],[-0.2199074074074074],[1],[0],[0],[1.4033162998966873],['Target'],152,0,152,0,371.09545149980113,,5,371.0777437998913,371.09545149980113,371.09545149980113,0.013107100035995245,372.09636620013043,372.481557500083,[-0.006944444444444444],[-0.2199074074074074],[1],[0],[0],[1.4033162998966873],['Target'],547174,001,2024-10-09_13h57.50.784,Visual Search Task,2024.2.1post4,59.8205980670766,2024-10-09 13h58.01.474839 +0530,
153,0,153,[0.4224537037037037],[0.21875],[1],[0],[0],[3.3737260000780225],['Target'],153,0,153,0,372.5285688000731,,10,372.50579919992015,372.5285688000731,372.5285688000731,0.02413980010896921,373.5296990997158,375.88003019988537,[0.4224537037037037],[0.21875],[1],[0],[0],[3.3737260000780225],['Target'],547174,001,2024-10-09_13h57.50.784,Visual Search Task,2024.2.1post4,59.8205980670766,2024-10-09 13h58.01.474839 +0530,
154,0,154,[-0.5138888888888888],[-0.27199074074074076],[1],[0],[0],[1.505065799690783],['Target'],154,0,154,0,375.91164509998634,,5,375.8918181001209,375.91164509998634,375.91164509998634,0.011639900039881468,376.9128155000508,377.3974044001661,[-0.5138888888888888],[-0.27199074074074076],[1],[0],[0],[1.505065799690783],['Target'],547174,001,2024-10-09_13h57.50.784,Visual Search Task,2024.2.1post4,59.8205980670766,2024-10-09 13h58.01.474839 +0530,
155,0,155,[-0.16782407407407407],[-0.15393518518518517],[1],[0],[0],[1.718892800156027],['Target'],155,0,155,0,377.4277804000303,,5,377.4104865998961,377.4277804000303,377.4277804000303,0.012974699959158897,378.4294925997965,379.1299477000721,[-0.16782407407407407],[-0.15393518518518517],[1],[0],[0],[1.718892800156027],['Target'],547174,001,2024-10-09_13h57.50.784,Visual Search Task,2024.2.1post4,59.8205980670766,2024-10-09 13h58.01.474839 +0530,
156,0,156,[0.3923611111111111],[-0.44675925925925924],[1],[0],[0],[26.518303100019693],['Target'],156,0,156,0,379.16122750006616,,5,379.1418320001103,379.16122750006616,379.16122750006616,0.01177800027653575,380.16210039984435,405.66067609982565,[0.3923611111111111],[-0.44675925925925924],[1],[0],[0],[26.518303100019693],['Target'],547174,001,2024-10-09_13h57.50.784,Visual Search Task,2024.2.1post4,59.8205980670766,2024-10-09 13h58.01.474839 +0530,
157,0,157,[0.14583333333333334],[-0.24537037037037038],[1],[0],[0],[1.9245970002375543],['Target'],157,0,157,0,405.7077099001035,,10,405.6849389998242,405.7077099001035,405.7077099001035,0.024149700067937374,406.70864540012553,407.61002629995346,[0.14583333333333334],[-0.24537037037037038],[1],[0],[0],[1.9245970002375543],['Target'],547174,001,2024-10-09_13h57.50.784,Visual Search Task,2024.2.1post4,59.8205980670766,2024-10-09 13h58.01.474839 +0530,
158,0,158,[-0.0787037037037037],[0.06712962962962964],[1],[0],[0],[1.3705473998561502],['Target'],158,0,158,0,407.64089410007,,5,407.6221846998669,407.64089410007,407.64089410007,0.012115099932998419,408.64198369998485,408.9935280000791,[-0.0787037037037037],[0.06712962962962964],[1],[0],[0],[1.3705473998561502],['Target'],547174,001,2024-10-09_13h57.50.784,Visual Search Task,2024.2.1post4,59.8205980670766,2024-10-09 13h58.01.474839 +0530,
159,0,159,[0.2175925925925926],[0.08449074074074074],[1],[0],[0],[1.30197439994663],['Target'],159,0,159,0,409.0241968999617,,5,409.0068880999461,409.0241968999617,409.0241968999617,0.01325219962745905,410.024910800159,410.3093453999609,[0.2175925925925926],[0.08449074074074074],[1],[0],[0],[1.30197439994663],['Target'],547174,001,2024-10-09_13h57.50.784,Visual Search Task,2024.2.1post4,59.8205980670766,2024-10-09 13h58.01.474839 +0530,
160,0,160,[-0.09027777777777778],[-0.05324074074074074],[1],[0],[0],[1.1041613998822868],['Target'],160,0,160,0,410.34050979977474,,5,410.3210738999769,410.34050979977474,410.34050979977474,0.01162249967455864,411.34136099973693,411.4257956999354,[-0.09027777777777778],[-0.05324074074074074],[1],[0],[0],[1.1041613998822868],['Target'],547174,001,2024-10-09_13h57.50.784,Visual Search Task,2024.2.1post4,59.8205980670766,2024-10-09 13h58.01.474839 +0530,
161,0,161,[0.4027777777777778],[-0.44328703703703703],[1],[0],[0],[2.63776610000059],['Target'],161,0,161,0,411.4566310001537,,5,411.4374867998995,411.4566310001537,411.4566310001537,0.011588099878281355,412.458132899832,414.07572929980233,[0.4027777777777778],[-0.44328703703703703],[1],[0],[0],[2.63776610000059],['Target'],547174,001,2024-10-09_13h57.50.784,Visual Search Task,2024.2.1post4,59.8205980670766,2024-10-09 13h58.01.474839 +0530,
162,0,162,[-0.061342592592592594],[-0.3541666666666667],[1],[0],[0],[1.5887350998818874],['Target'],162,0,162,0,414.1068766997196,,5,414.08756109979004,414.1068766997196,414.1068766997196,0.011773000005632639,415.10757889971137,415.6768946000375,[-0.061342592592592594],[-0.3541666666666667],[1],[0],[0],[1.5887350998818874],['Target'],547174,001,2024-10-09_13h57.50.784,Visual Search Task,2024.2.1post4,59.8205980670766,2024-10-09 13h58.01.474839 +0530,
163,0,163,[-0.17708333333333334],[-0.39467592592592593],[1],[0],[0],[2.710319200064987],['Target'],163,0,163,0,415.7226626998745,,10,415.70110430009663,415.7226626998745,415.7226626998745,0.024098200257867575,416.72411319985986,418.4127636998892,[-0.17708333333333334],[-0.39467592592592593],[1],[0],[0],[2.710319200064987],['Target'],547174,001,2024-10-09_13h57.50.784,Visual Search Task,2024.2.1post4,59.8205980670766,2024-10-09 13h58.01.474839 +0530,
164,0,164,"[-0.4722222222222222, -0.42824074074074076]","[-0.3784722222222222, -0.39351851851851855]","[1, 1]","[0, 0]","[0, 0]","[2.8187835002318025, 3.6843455000780523]","[None, 'Target']",164,0,164,0,418.45571599993855,,5,418.4397493000142,418.45571599993855,418.45571599993855,0.026365499943494797,419.45789900003,422.12457760004327,"[-0.4722222222222222, -0.42824074074074076]","[-0.3784722222222222, -0.39351851851851855]","[1, 1]","[0, 0]","[0, 0]","[2.8187835002318025, 3.6843455000780523]","[None, 'Target']",547174,001,2024-10-09_13h57.50.784,Visual Search Task,2024.2.1post4,59.8205980670766,2024-10-09 13h58.01.474839 +0530,
165,0,165,[-0.09837962962962964],[-0.0775462962962963],[1],[0],[0],[1.4858698998577893],['Target'],165,0,165,0,422.15565430000424,,5,422.1382530000992,422.15565430000424,422.15565430000424,0.013546900358051062,423.1569456998259,423.6245892001316,[-0.09837962962962964],[-0.0775462962962963],[1],[0],[0],[1.4858698998577893],['Target'],547174,001,2024-10-09_13h57.50.784,Visual Search Task,2024.2.1post4,59.8205980670766,2024-10-09 13h58.01.474839 +0530,
166,0,166,[0.19328703703703703],[0.42592592592592593],[1],[0],[0],[1.55461739981547],['Target'],166,0,166,0,423.65621779998764,,5,423.63592769997194,423.65621779998764,423.65621779998764,0.011218700092285872,424.6565745999105,425.1910573998466,[0.19328703703703703],[0.42592592592592593],[1],[0],[0],[1.55461739981547],['Target'],547174,001,2024-10-09_13h57.50.784,Visual Search Task,2024.2.1post4,59.8205980670766,2024-10-09 13h58.01.474839 +0530,
167,0,167,[-0.03819444444444445],[0.19212962962962962],[1],[0],[0],[1.4411337999626994],['Target'],167,0,167,0,425.2382539999671,,10,425.21565129980445,425.2382539999671,425.2382539999671,0.024472199846059084,426.2395211998373,426.6573184998706,[-0.03819444444444445],[0.19212962962962962],[1],[0],[0],[1.4411337999626994],['Target'],547174,001,2024-10-09_13h57.50.784,Visual Search Task,2024.2.1post4,59.8205980670766,2024-10-09 13h58.01.474839 +0530,
168,0,168,[-0.13773148148148148],[-0.36689814814814814],[1],[0],[0],[2.170864900108427],['Target'],168,0,168,0,426.6881798999384,,5,426.6693858001381,426.6881798999384,426.6881798999384,0.011989899910986423,427.68954399973154,428.84090999979526,[-0.13773148148148148],[-0.36689814814814814],[1],[0],[0],[2.170864900108427],['Target'],547174,001,2024-10-09_13h57.50.784,Visual Search Task,2024.2.1post4,59.8205980670766,2024-10-09 13h58.01.474839 +0530,
169,0,169,[0.45717592592592593],[-0.4224537037037037],[1],[0],[0],[3.269431199878454],['Target'],169,0,169,0,428.871180200018,,5,428.852828099858,428.871180200018,428.871180200018,0.011901400052011013,429.87285109981894,432.12312299991027,[0.45717592592592593],[-0.4224537037037037],[1],[0],[0],[3.269431199878454],['Target'],547174,001,2024-10-09_13h57.50.784,Visual Search Task,2024.2.1post4,59.8205980670766,2024-10-09 13h58.01.474839 +0530,
170,0,170,[0.5023148148148148],[-0.08680555555555555],[1],[0],[0],[1.692801899742335],['Target'],170,0,170,0,432.17087440006435,,10,432.1472104000859,432.17087440006435,432.17087440006435,0.02397339977324009,433.17226829985157,433.84050890011713,[0.5023148148148148],[-0.08680555555555555],[1],[0],[0],[1.692801899742335],['Target'],547174,001,2024-10-09_13h57.50.784,Visual Search Task,2024.2.1post4,59.8205980670766,2024-10-09 13h58.01.474839 +0530,
171,0,171,"[0.4224537037037037, 0.3923611111111111]","[0.2789351851851852, 0.29398148148148145]","[1, 1]","[0, 0]","[0, 0]","[1.286298300139606, 2.868441100232303]","[None, 'Target']",171,0,171,0,433.8706256998703,,5,433.8535064999014,433.8706256998703,433.8706256998703,0.012868499848991632,434.8718674997799,436.7225068998523,"[0.4224537037037037, 0.3923611111111111]","[0.2789351851851852, 0.29398148148148145]","[1, 1]","[0, 0]","[0, 0]","[1.286298300139606, 2.868441100232303]","[None, 'Target']",547174,001,2024-10-09_13h57.50.784,Visual Search Task,2024.2.1post4,59.8205980670766,2024-10-09 13h58.01.474839 +0530,
172,0,172,[0.1400462962962963],[0.05787037037037037],[1],[0],[0],[1.6592004001140594],['Target'],172,0,172,0,436.77039159974083,,10,436.74637119984254,436.77039159974083,436.77039159974083,0.023735399823635817,437.7715647001751,438.4060506001115,[0.1400462962962963],[0.05787037037037037],[1],[0],[0],[1.6592004001140594],['Target'],547174,001,2024-10-09_13h57.50.784,Visual Search Task,2024.2.1post4,59.8205980670766,2024-10-09 13h58.01.474839 +0530,
173,0,173,[-0.10648148148148148],[0.10185185185185185],[1],[0],[0],[2.703890500124544],['Target'],173,0,173,0,438.43705559987575,,5,438.41868289979175,438.43705559987575,438.43705559987575,0.01256969990208745,439.4381554001011,441.12330390000716,[-0.10648148148148148],[0.10185185185185185],[1],[0],[0],[2.703890500124544],['Target'],547174,001,2024-10-09_13h57.50.784,Visual Search Task,2024.2.1post4,59.8205980670766,2024-10-09 13h58.01.474839 +0530,
174,0,174,[0.1701388888888889],[0.08449074074074074],[1],[0],[0],[5.602073200047016],['Target'],174,0,174,0,441.1533193998039,,5,441.13593519991264,441.1533193998039,441.1533193998039,0.012507100123912096,442.15447399998084,446.7385084000416,[0.1701388888888889],[0.08449074074074074],[1],[0],[0],[5.602073200047016],['Target'],547174,001,2024-10-09_13h57.50.784,Visual Search Task,2024.2.1post4,59.8205980670766,2024-10-09 13h58.01.474839 +0530,
175,0,175,[-0.4375],[-0.36574074074074076],[1],[0],[0],[2.623887499794364],['Target'],175,0,175,0,446.78572200005874,,10,446.7636492997408,446.78572200005874,446.78572200005874,0.02501680003479123,447.7868204000406,449.3879960998893,[-0.4375],[-0.36574074074074076],[1],[0],[0],[2.623887499794364],['Target'],547174,001,2024-10-09_13h57.50.784,Visual Search Task,2024.2.1post4,59.8205980670766,2024-10-09 13h58.01.474839 +0530,
176,0,176,[-0.10648148148148148],[0.2881944444444444],[1],[0],[0],[2.8415270000696182],['Target'],176,0,176,0,449.4355024001561,,10,449.4122346001677,449.4355024001561,449.4355024001561,0.024086699821054935,450.43701680004597,452.25427859975025,[-0.10648148148148148],[0.2881944444444444],[1],[0],[0],[2.8415270000696182],['Target'],547174,001,2024-10-09_13h57.50.784,Visual Search Task,2024.2.1post4,59.8205980670766,2024-10-09 13h58.01.474839 +0530,
177,0,177,[0.37037037037037035],[-0.052083333333333336],[1],[0],[0],[1.8045179997570813],['Target'],177,0,177,0,452.28507900005206,,5,452.2664278000593,452.28507900005206,452.28507900005206,0.012074799742549658,453.28630559984595,454.07162379985675,[0.37037037037037035],[-0.052083333333333336],[1],[0],[0],[1.8045179997570813],['Target'],547174,001,2024-10-09_13h57.50.784,Visual Search Task,2024.2.1post4,59.8205980670766,2024-10-09 13h58.01.474839 +0530,
178,0,178,[-0.08333333333333333],[-0.26967592592592593],[1],[0],[0],[1.2856393000110984],['Target'],178,0,178,0,454.10165109997615,,5,454.08480429975316,454.10165109997615,454.10165109997615,0.013067400082945824,455.1026702998206,455.3709356999025,[-0.08333333333333333],[-0.26967592592592593],[1],[0],[0],[1.2856393000110984],['Target'],547174,001,2024-10-09_13h57.50.784,Visual Search Task,2024.2.1post4,59.8205980670766,2024-10-09 13h58.01.474839 +0530,
179,0,179,"[0.33564814814814814, 0.3738425925925926]","[0.15162037037037038, 0.21180555555555555]","[1, 1]","[0, 0]","[0, 0]","[1.3858521999791265, 2.6523255999200046]","[None, 'Target']",179,0,179,0,455.40169270010665,,5,455.3837919998914,455.40169270010665,455.40169270010665,0.012715499848127365,456.40220130002126,458.0366544998251,"[0.33564814814814814, 0.3738425925925926]","[0.15162037037037038, 0.21180555555555555]","[1, 1]","[0, 0]","[0, 0]","[1.3858521999791265, 2.6523255999200046]","[None, 'Target']",547174,001,2024-10-09_13h57.50.784,Visual Search Task,2024.2.1post4,59.8205980670766,2024-10-09 13h58.01.474839 +0530,
180,0,180,[-0.40625],[0.027777777777777776],[1],[0],[0],[2.037248999811709],['Target'],180,0,180,0,458.0677551999688,,5,458.04881939990446,458.0677551999688,458.0677551999688,0.012043300084769726,459.0689326999709,460.0866731000133,[-0.40625],[0.027777777777777776],[1],[0],[0],[2.037248999811709],['Target'],547174,001,2024-10-09_13h57.50.784,Visual Search Task,2024.2.1post4,59.8205980670766,2024-10-09 13h58.01.474839 +0530,
181,0,181,[0.008101851851851851],[0.28703703703703703],[1],[0],[0],[1.5382646000944078],['Target'],181,0,181,0,460.1176434000954,,5,460.09827779978514,460.1176434000954,460.1176434000954,0.011501799803227186,461.1187547999434,461.63709740014747,[0.008101851851851851],[0.28703703703703703],[1],[0],[0],[1.5382646000944078],['Target'],547174,001,2024-10-09_13h57.50.784,Visual Search Task,2024.2.1post4,59.8205980670766,2024-10-09 13h58.01.474839 +0530,
182,0,182,[-0.15625],[0.1840277777777778],[1],[0],[0],[1.3030039998702705],['Target'],182,0,182,0,461.6668865000829,,5,461.6501191998832,461.6668865000829,461.6668865000829,0.012844500131905079,462.66835949989036,462.95357939973474,[-0.15625],[0.1840277777777778],[1],[0],[0],[1.3030039998702705],['Target'],547174,001,2024-10-09_13h57.50.784,Visual Search Task,2024.2.1post4,59.8205980670766,2024-10-09 13h58.01.474839 +0530,
183,0,183,[-0.1087962962962963],[-0.18055555555555555],[1],[0],[0],[2.80270619969815],['Target'],183,0,183,0,462.98377709975466,,5,462.9664813000709,462.98377709975466,462.98377709975466,0.012767199892550707,463.98502170015126,465.76966700004414,[-0.1087962962962963],[-0.18055555555555555],[1],[0],[0],[2.80270619969815],['Target'],547174,001,2024-10-09_13h57.50.784,Visual Search Task,2024.2.1post4,59.8205980670766,2024-10-09 13h58.01.474839 +0530,
184,0,184,[-0.061342592592592594],[-0.13425925925925927],[1],[0],[0],[1.2208276996389031],['Target'],184,0,184,0,465.80030590016395,,5,465.7813316001557,465.80030590016395,465.80030590016395,0.011626299936324358,466.8011680999771,467.0029969001189,[-0.061342592592592594],[-0.13425925925925927],[1],[0],[0],[1.2208276996389031],['Target'],547174,001,2024-10-09_13h57.50.784,Visual Search Task,2024.2.1post4,59.8205980670766,2024-10-09 13h58.01.474839 +0530,
185,0,185,"[0.125, 0.15162037037037038]","[-0.19560185185185186, -0.17824074074074073]","[1, 1]","[0, 0]","[0, 0]","[1.401327199768275, 2.867581299971789]","[None, 'Target']",185,0,185,0,467.0330619998276,,5,467.0172604001127,467.0330619998276,467.0330619998276,0.013971599750220776,468.0341000999324,469.8852904001251,"[0.125, 0.15162037037037038]","[-0.19560185185185186, -0.17824074074074073]","[1, 1]","[0, 0]","[0, 0]","[1.401327199768275, 2.867581299971789]","[None, 'Target']",547174,001,2024-10-09_13h57.50.784,Visual Search Task,2024.2.1post4,59.8205980670766,2024-10-09 13h58.01.474839 +0530,
186,0,186,[-0.07175925925925926],[-0.02546296296296296],[1],[0],[0],[1.8759872997179627],['Target'],186,0,186,0,469.9327815999277,,10,469.9093642998487,469.9327815999277,469.9327815999277,0.023928099777549505,470.93429380003363,471.78585830004886,[-0.07175925925925926],[-0.02546296296296296],[1],[0],[0],[1.8759872997179627],['Target'],547174,001,2024-10-09_13h57.50.784,Visual Search Task,2024.2.1post4,59.8205980670766,2024-10-09 13h58.01.474839 +0530,
187,0,187,[0.1909722222222222],[-0.125],[1],[0],[0],[1.4350072997622192],['Target'],187,0,187,0,471.8157198000699,,5,471.7997816000134,471.8157198000699,471.8157198000699,0.013693199958652258,472.8170672999695,473.23527849977836,[0.1909722222222222],[-0.125],[1],[0],[0],[1.4350072997622192],['Target'],547174,001,2024-10-09_13h57.50.784,Visual Search Task,2024.2.1post4,59.8205980670766,2024-10-09 13h58.01.474839 +0530,
188,0,188,[-0.4074074074074074],[0.2523148148148148],[1],[0],[0],[2.2030183002352715],['Target'],188,0,188,0,473.26557949976996,,5,473.2473973999731,473.26557949976996,473.26557949976996,0.012093700002878904,474.2671924000606,475.45123460004106,[-0.4074074074074074],[0.2523148148148148],[1],[0],[0],[2.2030183002352715],['Target'],547174,001,2024-10-09_13h57.50.784,Visual Search Task,2024.2.1post4,59.8205980670766,2024-10-09 13h58.01.474839 +0530,
189,0,189,[0.30671296296296297],[0.24768518518518517],[1],[0],[0],[2.0419835997745395],['Target'],189,0,189,0,475.4988855998963,,10,475.47526239976287,475.4988855998963,475.4988855998963,0.023902899585664272,476.4998629000038,477.51770519977435,[0.30671296296296297],[0.24768518518518517],[1],[0],[0],[2.0419835997745395],['Target'],547174,001,2024-10-09_13h57.50.784,Visual Search Task,2024.2.1post4,59.8205980670766,2024-10-09 13h58.01.474839 +0530,
190,0,190,[-0.20717592592592593],[-0.16666666666666666],[1],[0],[0],[1.8194531998597085],['Target'],190,0,190,0,477.54865279980004,,5,477.5313673000783,477.54865279980004,477.54865279980004,0.01348969992250204,478.5495345001109,479.35137199983,[-0.20717592592592593],[-0.16666666666666666],[1],[0],[0],[1.8194531998597085],['Target'],547174,001,2024-10-09_13h57.50.784,Visual Search Task,2024.2.1post4,59.8205980670766,2024-10-09 13h58.01.474839 +0530,
191,0,191,[-0.4398148148148148],[0.17592592592592593],[1],[0],[0],[2.123529799748212],['Target'],191,0,191,0,479.39798050001264,,10,479.3761625001207,479.39798050001264,479.39798050001264,0.024682799819856882,480.399756600149,481.500196099747,[-0.4398148148148148],[0.17592592592592593],[1],[0],[0],[2.123529799748212],['Target'],547174,001,2024-10-09_13h57.50.784,Visual Search Task,2024.2.1post4,59.8205980670766,2024-10-09 13h58.01.474839 +0530,
192,0,192,[-0.04282407407407408],[0.2951388888888889],[1],[0],[0],[2.7245753002353013],['Target'],192,0,192,0,481.547858200036,,10,481.52521499991417,481.547858200036,481.547858200036,0.024884900078177452,482.54929320001975,484.2502668998204,[-0.04282407407407408],[0.2951388888888889],[1],[0],[0],[2.7245753002353013],['Target'],547174,001,2024-10-09_13h57.50.784,Visual Search Task,2024.2.1post4,59.8205980670766,2024-10-09 13h58.01.474839 +0530,
193,0,193,[0.2673611111111111],[-0.40625],[1],[0],[0],[3.0751899001188576],['Target'],193,0,193,0,484.29776429990306,,10,484.27428469993174,484.29776429990306,484.29776429990306,0.023877699859440327,485.2991098999046,487.3500115000643,[0.2673611111111111],[-0.40625],[1],[0],[0],[3.0751899001188576],['Target'],547174,001,2024-10-09_13h57.50.784,Visual Search Task,2024.2.1post4,59.8205980670766,2024-10-09 13h58.01.474839 +0530,
194,0,194,[0.3298611111111111],[0.10069444444444445],[1],[0],[0],[3.821245100349188],['Target'],194,0,194,0,487.3806846998632,,5,487.3630272001028,487.3806846998632,487.3806846998632,0.012880200054496527,488.38182239979506,491.185543499887,[0.3298611111111111],[0.10069444444444445],[1],[0],[0],[3.821245100349188],['Target'],547174,001,2024-10-09_13h57.50.784,Visual Search Task,2024.2.1post4,59.8205980670766,2024-10-09 13h58.01.474839 +0530,
195,0,195,[0.1111111111111111],[-0.27662037037037035],[1],[0],[0],[2.185370299965143],['Target'],195,0,195,0,491.2300656000152,,5,491.2132064001635,491.2300656000152,491.2300656000152,0.026963800191879272,492.2319526998326,493.3990803998895,[0.1111111111111111],[-0.27662037037037035],[1],[0],[0],[2.185370299965143],['Target'],547174,001,2024-10-09_13h57.50.784,Visual Search Task,2024.2.1post4,59.8205980670766,2024-10-09 13h58.01.474839 +0530,
196,0,196,[-0.4756944444444444],[0.16319444444444445],[1],[0],[0],[10.284703900106251],['Target'],196,0,196,0,493.42996420012787,,5,493.41253629978746,493.42996420012787,493.42996420012787,0.013329099863767624,494.4308358998969,503.6976879001595,[-0.4756944444444444],[0.16319444444444445],[1],[0],[0],[10.284703900106251],['Target'],547174,001,2024-10-09_13h57.50.784,Visual Search Task,2024.2.1post4,59.8205980670766,2024-10-09 13h58.01.474839 +0530,
197,0,197,[-0.09606481481481481],[0.3229166666666667],[1],[0],[0],[1.8083465001545846],['Target'],197,0,197,0,503.7451249998994,,10,503.72206960013136,503.7451249998994,503.7451249998994,0.02427269984036684,504.7466055001132,505.53087439993396,[-0.09606481481481481],[0.3229166666666667],[1],[0],[0],[1.8083465001545846],['Target'],547174,001,2024-10-09_13h57.50.784,Visual Search Task,2024.2.1post4,59.8205980670766,2024-10-09 13h58.01.474839 +0530,
198,0,198,[-0.4409722222222222],[-0.02662037037037037],[1],[0],[0],[1.6583338999189436],['Target'],198,0,198,0,505.57807639986277,,10,505.55523509997874,505.57807639986277,505.57807639986277,0.024203999899327755,506.57987370016053,507.21403709985316,[-0.4409722222222222],[-0.02662037037037037],[1],[0],[0],[1.6583338999189436],['Target'],547174,001,2024-10-09_13h57.50.784,Visual Search Task,2024.2.1post4,59.8205980670766,2024-10-09 13h58.01.474839 +0530,
199,0,199,[0.1087962962962963],[-0.12384259259259259],[1],[0],[0],[1.8915446000173688],['Target'],199,0,199,0,507.26141279982403,,10,507.2382008000277,507.26141279982403,507.26141279982403,0.024009499698877335,508.26303760008886,509.1302827000618,[0.1087962962962963],[-0.12384259259259259],[1],[0],[0],[1.8915446000173688],['Target'],547174,001,2024-10-09_13h57.50.784,Visual Search Task,2024.2.1post4,59.8205980670766,2024-10-09 13h58.01.474839 +0530,
