reward_today,future_reward,delay,thisN,thisTrialN,thisRepN,key_resp.keys,key_resp.rt,key_resp.duration,trials.thisRepN,trials.thisTrialN,trials.thisN,trials.thisIndex,thisRow.t,notes,trial.started,Fixation.started,text.started,key_resp.started,Fixation.stopped,trial.stopped,trials.key_resp.keys,trials.key_resp.rt,trials.key_resp.duration,participant,session,date,expName,psychopyVersion,frameRate,expStart,
78,80,162,0,0,0,t,0.2743508749990724,None,0,0,0,6,0.054251582998404047,,0.04683954099891707,0.054251582998404047,1.0050261659998796,1.0050261659998796,1.045493957999497,1.288529124998604,t,0.2743508749990724,None,2,001,2024-11-30_15h13.26.077,Delay Discounting,2024.2.4,119.15424223559961,2024-11-30 15h13.33.089323 +0530,
15,35,13,1,1,0,t,0.2607692080000561,None,0,1,1,1,1.3136616659994615,,1.2955448329994397,1.3136616659994615,2.2863411660000565,2.2863411660000565,2.311140957999669,2.5559538749985222,t,0.2607692080000561,None,2,001,2024-11-30_15h13.26.077,Delay Discounting,2024.2.4,119.15424223559961,2024-11-30 15h13.33.089323 +0530,
11,30,7,2,2,0,l,0.15326562500013097,None,0,2,2,0,2.575624249999237,,2.5649166249986592,2.575624249999237,3.558578165999279,3.558578165999279,3.57098754099934,3.72241854099957,l,0.15326562500013097,None,2,001,2024-11-30_15h13.26.077,Delay Discounting,2024.2.4,119.15424223559961,2024-11-30 15h13.33.089323 +0530,
67,76,119,3,3,0,l,0.1632809169987013,None,0,3,3,5,3.7376887499995064,,3.7284511249999923,3.7376887499995064,4.7243905830000585,4.7243905830000585,4.737687457998618,4.890323707999414,l,0.1632809169987013,None,2,001,2024-11-30_15h13.26.077,Delay Discounting,2024.2.4,119.15424223559961,2024-11-30 15h13.33.089323 +0530,
49,60,89,4,4,0,l,0.015282499998647836,None,0,4,4,4,4.904050499999357,,4.896157040999242,4.904050499999357,5.891004832999897,5.891004832999897,5.904336249999687,5.914052915999491,l,0.015282499998647836,None,2,001,2024-11-30_15h13.26.077,Delay Discounting,2024.2.4,119.15424223559961,2024-11-30 15h13.33.089323 +0530,
27,50,21,5,5,0,l,0.15667149999899266,None,0,5,5,2,5.929117790999953,,5.920425832999172,5.929117790999953,6.9209363749996555,6.9209363749996555,6.9294284159987,7.079874874998495,l,0.15667149999899266,None,2,001,2024-11-30_15h13.26.077,Delay Discounting,2024.2.4,119.15424223559961,2024-11-30 15h13.33.089323 +0530,
40,55,62,6,6,0,t,0.08194704199922853,None,0,6,6,3,7.0930698749998555,,7.084332999998878,7.0930698749998555,8.079608582998844,8.079608582998844,8.088078415999917,8.164305165999394,t,0.08194704199922853,None,2,001,2024-11-30_15h13.26.077,Delay Discounting,2024.2.4,119.15424223559961,2024-11-30 15h13.33.089323 +0530,
27,50,21,7,0,1,l,0.11234720800166542,None,1,0,7,2,8.178720500000054,,8.170423290999679,8.178720500000054,9.16186416599885,9.16186416599885,9.170818165999663,9.279252540998641,l,0.11234720800166542,None,2,001,2024-11-30_15h13.26.077,Delay Discounting,2024.2.4,119.15424223559961,2024-11-30 15h13.33.089323 +0530,
40,55,62,8,1,1,t,0.044299667000814225,None,1,1,8,3,9.292459958000109,,9.284180082999228,9.292459958000109,10.277780874999735,10.277780874999735,10.28614183299942,10.329464332999123,t,0.044299667000814225,None,2,001,2024-11-30_15h13.26.077,Delay Discounting,2024.2.4,119.15424223559961,2024-11-30 15h13.33.089323 +0530,
67,76,119,9,2,1,t,None,None,1,2,9,5,10.341153832998316,,10.333463582999684,10.341153832998316,11.327850040999692,11.327850040999692,11.340840040998955,11.430376249998517,t,None,None,2,001,2024-11-30_15h13.26.077,Delay Discounting,2024.2.4,119.15424223559961,2024-11-30 15h13.33.089323 +0530,
49,60,89,10,3,1,l,0.12697916599972814,None,1,3,10,4,11.443805999999313,,11.43662858299831,11.443805999999313,12.426802874999339,12.426802874999339,12.437227790998804,12.555969999999434,l,0.12697916599972814,None,2,001,2024-11-30_15h13.26.077,Delay Discounting,2024.2.4,119.15424223559961,2024-11-30 15h13.33.089323 +0530,
78,80,162,11,4,1,t,0.0036615000008168863,None,1,4,11,6,12.56840099999863,,12.560942415999307,12.56840099999863,13.5535337909987,13.5535337909987,13.561357915999906,13.563323165999464,t,0.0036615000008168863,None,2,001,2024-11-30_15h13.26.077,Delay Discounting,2024.2.4,119.15424223559961,2024-11-30 15h13.33.089323 +0530,
11,30,7,12,5,1,t,0.06602004100022896,None,1,5,12,0,13.575226375000057,,13.567879790998632,13.575226375000057,14.56272799999897,14.56272799999897,14.571397290999812,14.638755207999566,t,0.06602004100022896,None,2,001,2024-11-30_15h13.26.077,Delay Discounting,2024.2.4,119.15424223559961,2024-11-30 15h13.33.089323 +0530,
15,35,13,13,6,1,t,0.04641179200007173,None,1,6,13,1,14.651173124999332,,14.64300316599838,14.651173124999332,15.636369750000085,15.636369750000085,15.64411091599868,15.687196957998822,t,0.04641179200007173,None,2,001,2024-11-30_15h13.26.077,Delay Discounting,2024.2.4,119.15424223559961,2024-11-30 15h13.33.089323 +0530,
40,55,62,14,0,2,l,None,None,2,0,14,3,15.699489124999673,,15.691378874998918,15.699489124999673,16.68802612499894,16.68802612499894,16.703886415998568,16.7458874999993,l,None,None,2,001,2024-11-30_15h13.26.077,Delay Discounting,2024.2.4,119.15424223559961,2024-11-30 15h13.33.089323 +0530,
11,30,7,15,1,2,l,0.040284874999997555,None,2,1,15,0,16.756577999998626,,16.74886024999978,16.756577999998626,17.745903415998328,17.745903415998328,17.754691041000115,17.787871957998505,l,0.040284874999997555,None,2,001,2024-11-30_15h13.26.077,Delay Discounting,2024.2.4,119.15424223559961,2024-11-30 15h13.33.089323 +0530,
67,76,119,16,2,2,t,0.1447055000007822,None,2,2,16,5,17.799249624998993,,17.79167708299974,17.799249624998993,18.78760116599915,18.78760116599915,18.795726582999123,18.939173415999903,t,0.1447055000007822,None,2,001,2024-11-30_15h13.26.077,Delay Discounting,2024.2.4,119.15424223559961,2024-11-30 15h13.33.089323 +0530,
78,80,162,17,3,2,t,0.0036334169999463484,None,2,3,17,6,18.95149570799913,,18.943748415998925,18.95149570799913,19.93629887499992,19.93629887499992,19.943044832998567,19.944594999999026,t,0.0036334169999463484,None,2,001,2024-11-30_15h13.26.077,Delay Discounting,2024.2.4,119.15424223559961,2024-11-30 15h13.33.089323 +0530,
15,35,13,18,4,2,t,0.031200542000078713,None,2,4,18,1,19.955981499999325,,19.94828291599879,19.955981499999325,20.95484049999868,20.95484049999868,20.970687749999342,20.98986920799871,t,0.031200542000078713,None,2,001,2024-11-30_15h13.26.077,Delay Discounting,2024.2.4,119.15424223559961,2024-11-30 15h13.33.089323 +0530,
27,50,21,19,5,2,t,0.0378774999990128,None,2,5,19,2,21.003396999998586,,20.994400790999862,21.003396999998586,21.98696433299847,21.98696433299847,21.99474191599984,22.029343332998906,t,0.0378774999990128,None,2,001,2024-11-30_15h13.26.077,Delay Discounting,2024.2.4,119.15424223559961,2024-11-30 15h13.33.089323 +0530,
49,60,89,20,6,2,l,0.07963287500024308,None,2,6,20,4,22.041123749999315,,22.03351391599972,22.041123749999315,23.019683332999193,23.019683332999193,23.037189040998783,23.104212249998454,l,0.07963287500024308,None,2,001,2024-11-30_15h13.26.077,Delay Discounting,2024.2.4,119.15424223559961,2024-11-30 15h13.33.089323 +0530,
40,55,62,21,0,3,t,0.09125304200097162,None,3,0,21,3,23.116436582999086,,23.10889083299844,23.116436582999086,24.095296790999782,24.095296790999782,24.111624290999316,24.18895833299939,t,0.09125304200097162,None,2,001,2024-11-30_15h13.26.077,Delay Discounting,2024.2.4,119.15424223559961,2024-11-30 15h13.33.089323 +0530,
27,50,21,22,1,3,t,0.010838749998583808,None,3,1,22,2,24.202615832999072,,24.19375433299865,24.202615832999072,25.185963124999034,25.185963124999034,25.19344691599872,25.204912457998944,t,0.010838749998583808,None,2,001,2024-11-30_15h13.26.077,Delay Discounting,2024.2.4,119.15424223559961,2024-11-30 15h13.33.089323 +0530,
15,35,13,23,2,3,l,0.032223541998973815,None,3,2,23,1,25.215985875000115,,25.20853954099948,25.215985875000115,26.204275832998974,26.204275832998974,26.21371566599919,26.239096499999505,l,0.032223541998973815,None,2,001,2024-11-30_15h13.26.077,Delay Discounting,2024.2.4,119.15424223559961,2024-11-30 15h13.33.089323 +0530,
11,30,7,24,3,3,l,0.03607899999951769,None,3,3,24,0,26.25102699999843,,26.242967124999268,26.25102699999843,27.23614712499875,27.23614712499875,27.245399124998585,27.280970082998465,l,0.03607899999951769,None,2,001,2024-11-30_15h13.26.077,Delay Discounting,2024.2.4,119.15424223559961,2024-11-30 15h13.33.089323 +0530,
49,60,89,25,4,3,l,0.03216174999943178,None,3,4,25,4,27.29819445799876,,27.287352540999564,27.29819445799876,28.279372082999544,28.279372082999544,28.304148999999597,28.314407415999085,l,0.03216174999943178,None,2,001,2024-11-30_15h13.26.077,Delay Discounting,2024.2.4,119.15424223559961,2024-11-30 15h13.33.089323 +0530,
67,76,119,26,5,3,t,0.04076687499946274,None,3,5,26,5,28.32654270799867,,28.31838308299848,28.32654270799867,29.312146708,29.312146708,29.320619582998916,29.354944207998415,t,0.04076687499946274,None,2,001,2024-11-30_15h13.26.077,Delay Discounting,2024.2.4,119.15424223559961,2024-11-30 15h13.33.089323 +0530,
78,80,162,27,6,3,l,0.023356667001280584,None,3,6,27,6,29.36673462499857,,29.359123958000055,29.36673462499857,30.370638249998592,30.370638249998592,30.370638249998592,30.40608733299996,l,0.023356667001280584,None,2,001,2024-11-30_15h13.26.077,Delay Discounting,2024.2.4,119.15424223559961,2024-11-30 15h13.33.089323 +0530,
78,80,162,28,0,4,t,0.08298287499928847,None,4,0,28,6,30.413937790999626,,30.40634045799925,30.413937790999626,31.402599749999354,31.402599749999354,31.41078274999927,31.488562874999843,t,0.08298287499928847,None,2,001,2024-11-30_15h13.26.077,Delay Discounting,2024.2.4,119.15424223559961,2024-11-30 15h13.33.089323 +0530,
67,76,119,29,1,4,t,0.07156450000002224,None,4,1,29,5,31.50053412499983,,31.49285454099845,31.50053412499983,32.4894197499998,32.4894197499998,32.504049124998346,32.57266779099882,t,0.07156450000002224,None,2,001,2024-11-30_15h13.26.077,Delay Discounting,2024.2.4,119.15424223559961,2024-11-30 15h13.33.089323 +0530,
40,55,62,30,2,4,l,0.08757387500008917,None,4,2,30,3,32.586789040999065,,32.57768749999923,32.586789040999065,33.570775457999844,33.570775457999844,33.578695332998905,33.662412499999846,l,0.08757387500008917,None,2,001,2024-11-30_15h13.26.077,Delay Discounting,2024.2.4,119.15424223559961,2024-11-30 15h13.33.089323 +0530,
11,30,7,31,3,4,t,0.05729645900100877,None,4,3,31,0,33.67441037499884,,33.66637199999968,33.67441037499884,34.66276720799942,34.66276720799942,34.67332158299905,34.72278324999934,t,0.05729645900100877,None,2,001,2024-11-30_15h13.26.077,Delay Discounting,2024.2.4,119.15424223559961,2024-11-30 15h13.33.089323 +0530,
15,35,13,32,4,4,t,0.0480869579987484,None,4,4,32,1,34.73520358299902,,34.727666124999814,34.73520358299902,35.72424899999896,35.72424899999896,35.737047790998986,35.780578707999666,t,0.0480869579987484,None,2,001,2024-11-30_15h13.26.077,Delay Discounting,2024.2.4,119.15424223559961,2024-11-30 15h13.33.089323 +0530,
27,50,21,33,5,4,t,0.0740210419990035,None,4,5,33,2,35.79439804100002,,35.78564408300008,35.79439804100002,36.778923290999955,36.778923290999955,36.80326416599928,36.856404124999244,t,0.0740210419990035,None,2,001,2024-11-30_15h13.26.077,Delay Discounting,2024.2.4,119.15424223559961,2024-11-30 15h13.33.089323 +0530,
49,60,89,34,6,4,t,0.2068534579993866,None,4,6,34,4,36.8744066249983,,36.86291062499913,36.8744066249983,37.85410908299855,37.85410908299855,37.87085824999849,38.07242233299985,t,0.2068534579993866,None,2,001,2024-11-30_15h13.26.077,Delay Discounting,2024.2.4,119.15424223559961,2024-11-30 15h13.33.089323 +0530,
27,50,21,35,0,5,l,0.012399249999361928,None,5,0,35,2,38.08466899999985,,38.076597582999966,38.08466899999985,39.07069441599924,39.07069441599924,39.07869016599943,39.088730999999825,l,0.012399249999361928,None,2,001,2024-11-30_15h13.26.077,Delay Discounting,2024.2.4,119.15424223559961,2024-11-30 15h13.33.089323 +0530,
40,55,62,36,1,5,t,0.07573566700011725,None,5,1,36,3,39.10269670799971,,39.09366574999876,39.10269670799971,40.086119290999704,40.086119290999704,40.09422162499868,40.17054887499944,t,0.07573566700011725,None,2,001,2024-11-30_15h13.26.077,Delay Discounting,2024.2.4,119.15424223559961,2024-11-30 15h13.33.089323 +0530,
78,80,162,37,2,5,l,0.02156699999977718,None,5,2,37,6,40.18264137499864,,40.17453058299907,40.18264137499864,41.162193499998466,41.162193499998466,41.21969575000003,41.189195874998404,l,0.02156699999977718,None,2,001,2024-11-30_15h13.26.077,Delay Discounting,2024.2.4,119.15424223559961,2024-11-30 15h13.33.089323 +0530,
67,76,119,38,3,5,t,0.05628104200150119,None,5,3,38,5,41.21969575000003,,41.19431224999971,41.21969575000003,42.18747591600004,42.18747591600004,42.22037204099979,42.256253165998714,t,0.05628104200150119,None,2,001,2024-11-30_15h13.26.077,Delay Discounting,2024.2.4,119.15424223559961,2024-11-30 15h13.33.089323 +0530,
15,35,13,39,4,5,l,0.035281208000014885,None,5,4,39,1,42.270453082999666,,42.261359332998836,42.270453082999666,43.253708790998644,43.253708790998644,43.26138295799865,43.29671720799888,l,0.035281208000014885,None,2,001,2024-11-30_15h13.26.077,Delay Discounting,2024.2.4,119.15424223559961,2024-11-30 15h13.33.089323 +0530,
49,60,89,40,5,5,t,1.5014050420013518,None,5,5,40,4,43.311387165998894,,43.30299770799866,43.311387165998894,44.296696290999535,44.296696290999535,44.31984495799952,45.80582308299927,t,1.5014050420013518,None,2,001,2024-11-30_15h13.26.077,Delay Discounting,2024.2.4,119.15424223559961,2024-11-30 15h13.33.089323 +0530,
11,30,7,41,6,5,t,0.7102672910004912,None,5,6,41,0,45.822487415998694,,45.81117733299834,45.822487415998694,46.80275595799867,46.80275595799867,46.81975491599951,47.52128566600004,t,0.7102672910004912,None,2,001,2024-11-30_15h13.26.077,Delay Discounting,2024.2.4,119.15424223559961,2024-11-30 15h13.33.089323 +0530,
78,80,162,42,0,6,l,0.07183858299868007,None,6,0,42,6,47.53460116599854,,47.526535874998444,47.53460116599854,48.52048991599986,48.52048991599986,48.52679349999926,48.59582395799953,l,0.07183858299868007,None,2,001,2024-11-30_15h13.26.077,Delay Discounting,2024.2.4,119.15424223559961,2024-11-30 15h13.33.089323 +0530,
11,30,7,43,1,6,l,0.007329791000302066,None,6,1,43,0,48.60823908299972,,48.600124499998856,48.60823908299972,49.59553258300002,49.59553258300002,49.60480812499918,49.607134249999945,l,0.007329791000302066,None,2,001,2024-11-30_15h13.26.077,Delay Discounting,2024.2.4,119.15424223559961,2024-11-30 15h13.33.089323 +0530,
15,35,13,44,2,6,t,0.07167687500077591,None,6,2,44,1,49.62297954099995,,49.612735124999745,49.62297954099995,50.602775207999,50.602775207999,50.620379415999196,50.679283207999106,t,0.07167687500077591,None,2,001,2024-11-30_15h13.26.077,Delay Discounting,2024.2.4,119.15424223559961,2024-11-30 15h13.33.089323 +0530,
27,50,21,45,3,6,l,0.17539908399885462,None,6,3,45,2,50.691186082998684,,50.68374520799989,50.691186082998684,51.6776963329994,51.6776963329994,51.68810366599973,51.862798457999816,l,0.17539908399885462,None,2,001,2024-11-30_15h13.26.077,Delay Discounting,2024.2.4,119.15424223559961,2024-11-30 15h13.33.089323 +0530,
49,60,89,46,4,6,t,0.0037167499995121034,None,6,4,46,4,51.87535662499977,,51.86732233299881,51.87535662499977,52.86077574999945,52.86077574999945,52.86947537499873,52.872020040998905,t,0.0037167499995121034,None,2,001,2024-11-30_15h13.26.077,Delay Discounting,2024.2.4,119.15424223559961,2024-11-30 15h13.33.089323 +0530,
40,55,62,47,5,6,l,0.014958916999603389,None,6,5,47,3,52.88434999999845,,52.876332791000095,52.88434999999845,53.871182124999905,53.871182124999905,53.87754166599916,53.888358832999074,l,0.014958916999603389,None,2,001,2024-11-30_15h13.26.077,Delay Discounting,2024.2.4,119.15424223559961,2024-11-30 15h13.33.089323 +0530,
67,76,119,48,6,6,t,0.05006320900065475,None,6,6,48,5,53.9005828749996,,53.892395749999196,53.9005828749996,54.886771790999774,54.886771790999774,54.89627866599949,54.93901829099923,t,0.05006320900065475,None,2,001,2024-11-30_15h13.26.077,Delay Discounting,2024.2.4,119.15424223559961,2024-11-30 15h13.33.089323 +0530,
67,76,119,49,0,7,l,0.028441665999707766,None,7,0,49,5,54.948309374998644,,54.939391999998406,54.948309374998644,55.93646491599975,55.93646491599975,55.94436574999963,55.9713005829999,l,0.028441665999707766,None,2,001,2024-11-30_15h13.26.077,Delay Discounting,2024.2.4,119.15424223559961,2024-11-30 15h13.33.089323 +0530,
40,55,62,50,1,7,l,1.4959293339998112,None,7,1,50,3,55.98344466599883,,55.97571104099916,55.98344466599883,56.96961887499856,56.96961887499856,56.97819524999977,58.47274379099872,l,1.4959293339998112,None,2,001,2024-11-30_15h13.26.077,Delay Discounting,2024.2.4,119.15424223559961,2024-11-30 15h13.33.089323 +0530,
11,30,7,51,2,7,t,0.2956610829987767,None,7,2,51,0,58.491136624999854,,58.47938566599987,58.491136624999854,59.469334999999774,59.469334999999774,59.486648874999446,59.772140915998534,t,0.2956610829987767,None,2,001,2024-11-30_15h13.26.077,Delay Discounting,2024.2.4,119.15424223559961,2024-11-30 15h13.33.089323 +0530,
78,80,162,52,3,7,l,0.05071370900077454,None,7,3,52,6,59.78914445800001,,59.7775813749995,59.78914445800001,60.76981345799868,60.76981345799868,60.78645466599846,60.82290374999866,l,0.05071370900077454,None,2,001,2024-11-30_15h13.26.077,Delay Discounting,2024.2.4,119.15424223559961,2024-11-30 15h13.33.089323 +0530,
27,50,21,53,4,7,t,0.11546987499968964,None,7,4,53,2,60.835656582999945,,60.82806479099963,60.835656582999945,61.821161165999,61.821161165999,61.82877279099921,61.93896812499952,t,0.11546987499968964,None,2,001,2024-11-30_15h13.26.077,Delay Discounting,2024.2.4,119.15424223559961,2024-11-30 15h13.33.089323 +0530,
15,35,13,54,5,7,t,0.023540500000308384,None,7,5,54,1,61.95440645799863,,61.94454779099942,61.95440645799863,62.93592712499958,62.93592712499958,62.95373633300005,62.96275908299867,t,0.023540500000308384,None,2,001,2024-11-30_15h13.26.077,Delay Discounting,2024.2.4,119.15424223559961,2024-11-30 15h13.33.089323 +0530,
49,60,89,55,6,7,l,0.04172070899949176,None,7,6,55,4,62.9763913329989,,62.96803654099858,62.9763913329989,63.96179637499881,63.96179637499881,63.97023395799988,64.00584408299983,l,0.04172070899949176,None,2,001,2024-11-30_15h13.26.077,Delay Discounting,2024.2.4,119.15424223559961,2024-11-30 15h13.33.089323 +0530,
67,76,119,56,0,8,t,0.00238595800146868,None,8,0,56,5,64.0180073749998,,64.01050291599859,64.0180073749998,65.01180754099914,65.01180754099914,65.01180754099914,65.02153674999863,t,0.00238595800146868,None,2,001,2024-11-30_15h13.26.077,Delay Discounting,2024.2.4,119.15424223559961,2024-11-30 15h13.33.089323 +0530,
78,80,162,57,1,8,t,0.06737804199838138,None,8,1,57,6,65.03431708299831,,65.02612712499831,65.03431708299831,66.02109487499911,66.02109487499911,66.02746479099915,66.09711629099911,t,0.06737804199838138,None,2,001,2024-11-30_15h13.26.077,Delay Discounting,2024.2.4,119.15424223559961,2024-11-30 15h13.33.089323 +0530,
15,35,13,58,2,8,t,0.10939458299981197,None,8,2,58,1,66.10963033299959,,66.10152541599928,66.10963033299959,67.09545283299849,67.09545283299849,67.10318974999973,67.21167008299926,t,0.10939458299981197,None,2,001,2024-11-30_15h13.26.077,Delay Discounting,2024.2.4,119.15424223559961,2024-11-30 15h13.33.089323 +0530,
49,60,89,59,3,8,t,28.578911208000136,None,8,3,59,4,67.22410537499854,,67.21610670799964,67.22410537499854,68.2107134580001,68.2107134580001,68.21926091599926,96.7958393329991,t,28.578911208000136,None,2,001,2024-11-30_15h13.26.077,Delay Discounting,2024.2.4,119.15424223559961,2024-11-30 15h13.33.089323 +0530,
40,55,62,60,4,8,l,0.043268166000416386,None,8,4,60,3,96.81383454099887,,96.80254820799928,96.81383454099887,97.7936741249996,97.7936741249996,97.80965162499888,97.84522054099943,l,0.043268166000416386,None,2,001,2024-11-30_15h13.26.077,Delay Discounting,2024.2.4,119.15424223559961,2024-11-30 15h13.33.089323 +0530,
11,30,7,61,5,8,l,0.08384587500040652,None,8,5,61,0,97.85790275,,97.85029845799909,97.85790275,98.85372479099897,98.85372479099897,98.87049241599925,98.94603729099981,l,0.08384587500040652,None,2,001,2024-11-30_15h13.26.077,Delay Discounting,2024.2.4,119.15424223559961,2024-11-30 15h13.33.089323 +0530,
27,50,21,62,6,8,l,0.12258937499973399,None,8,6,62,2,98.95825237499957,,98.95067374999962,98.95825237499957,99.94703729100002,99.94703729100002,99.95599795799899,100.07239554099942,l,0.12258937499973399,None,2,001,2024-11-30_15h13.26.077,Delay Discounting,2024.2.4,119.15424223559961,2024-11-30 15h13.33.089323 +0530,
78,80,162,63,0,9,l,0.05772137500025565,None,9,0,63,6,100.08556016599869,,100.0775508329989,100.08556016599869,101.07852249999996,101.07852249999996,101.07852249999996,101.14593916599915,l,0.05772137500025565,None,2,001,2024-11-30_15h13.26.077,Delay Discounting,2024.2.4,119.15424223559961,2024-11-30 15h13.33.089323 +0530,
27,50,21,64,1,9,l,0.020646791999752168,None,9,1,64,2,101.15798433300006,,101.15019466599915,101.15798433300006,102.14360624999972,102.14360624999972,102.15225458299938,102.17158595799992,l,0.020646791999752168,None,2,001,2024-11-30_15h13.26.077,Delay Discounting,2024.2.4,119.15424223559961,2024-11-30 15h13.33.089323 +0530,
49,60,89,65,2,9,l,0.044048125000699656,None,9,2,65,4,102.18635816599999,,102.177157832999,102.18635816599999,103.16953283299881,103.16953283299881,103.17853004099925,103.22081224999965,l,0.044048125000699656,None,2,001,2024-11-30_15h13.26.077,Delay Discounting,2024.2.4,119.15424223559961,2024-11-30 15h13.33.089323 +0530,
67,76,119,66,3,9,l,0.057619624998551444,None,9,3,66,5,103.23219066599995,,103.22475437499997,103.23219066599995,104.21227995799927,104.21227995799927,104.22875254099927,104.27887958299834,l,0.057619624998551444,None,2,001,2024-11-30_15h13.26.077,Delay Discounting,2024.2.4,119.15424223559961,2024-11-30 15h13.33.089323 +0530,
11,30,7,67,4,9,t,0.06998662499972852,None,9,4,67,0,104.29481754099834,,104.2853922079994,104.29481754099834,105.27862887499941,105.27862887499941,105.28740070799904,105.35465120799927,t,0.06998662499972852,None,2,001,2024-11-30_15h13.26.077,Delay Discounting,2024.2.4,119.15424223559961,2024-11-30 15h13.33.089323 +0530,
40,55,62,68,5,9,t,0.009294542000134243,None,9,5,68,3,105.36621004099834,,105.358819957999,105.36621004099834,106.35421720799968,106.35421720799968,106.3622624159998,106.3714103329985,t,0.009294542000134243,None,2,001,2024-11-30_15h13.26.077,Delay Discounting,2024.2.4,119.15424223559961,2024-11-30 15h13.33.089323 +0530,
15,35,13,69,6,9,t,0.013214291999247507,None,9,6,69,1,106.38318358299875,,106.37579387499864,106.38318358299875,107.36873595799989,107.36873595799989,107.37581108299855,107.38739037499909,t,0.013214291999247507,None,2,001,2024-11-30_15h13.26.077,Delay Discounting,2024.2.4,119.15424223559961,2024-11-30 15h13.33.089323 +0530,
67,76,119,70,0,10,l,0.15821087499898567,None,10,0,70,5,107.39994324999861,,107.39227608299916,107.39994324999861,108.37883349999902,108.37883349999902,108.41575945799923,108.54553533299986,l,0.15821087499898567,None,2,001,2024-11-30_15h13.26.077,Delay Discounting,2024.2.4,119.15424223559961,2024-11-30 15h13.33.089323 +0530,
27,50,21,71,1,10,l,0.24131787499936763,None,10,1,71,2,108.55898474999958,,108.55072670799927,108.55898474999958,109.54566779099878,109.54566779099878,109.55353212499904,109.79489783299869,l,0.24131787499936763,None,2,001,2024-11-30_15h13.26.077,Delay Discounting,2024.2.4,119.15424223559961,2024-11-30 15h13.33.089323 +0530,
40,55,62,72,2,10,t,0.03272783300053561,None,10,2,72,3,109.80710954099959,,109.79883170799985,109.80710954099959,110.79478837499846,110.79478837499846,110.80352949999906,110.83014895799897,t,0.03272783300053561,None,2,001,2024-11-30_15h13.26.077,Delay Discounting,2024.2.4,119.15424223559961,2024-11-30 15h13.33.089323 +0530,
49,60,89,73,3,10,t,0.04356170900064171,None,10,3,73,4,110.84183858299912,,110.83423816599861,110.84183858299912,111.83061820799958,111.83061820799958,111.8394276250001,111.87833912499991,t,0.04356170900064171,None,2,001,2024-11-30_15h13.26.077,Delay Discounting,2024.2.4,119.15424223559961,2024-11-30 15h13.33.089323 +0530,
11,30,7,74,4,10,t,0.04531295800006774,None,10,4,74,0,111.89107641599912,,111.88347316599902,111.89107641599912,112.87894491599945,112.87894491599945,112.88787791599862,112.93799216599837,t,0.04531295800006774,None,2,001,2024-11-30_15h13.26.077,Delay Discounting,2024.2.4,119.15424223559961,2024-11-30 15h13.33.089323 +0530,
15,35,13,75,5,10,t,0.023071499999787193,None,10,5,75,1,112.95223795799939,,112.94324454099842,112.95223795799939,113.95284520799942,113.95284520799942,113.97007641599885,113.98033358299836,t,0.023071499999787193,None,2,001,2024-11-30_15h13.26.077,Delay Discounting,2024.2.4,119.15424223559961,2024-11-30 15h13.33.089323 +0530,
78,80,162,76,6,10,t,0.13555587500013644,None,10,6,76,6,113.99687145799908,,113.98661512499893,113.99687145799908,114.97701404100007,114.97701404100007,114.99351162499988,115.12363895799899,t,0.13555587500013644,None,2,001,2024-11-30_15h13.26.077,Delay Discounting,2024.2.4,119.15424223559961,2024-11-30 15h13.33.089323 +0530,
67,76,119,77,0,11,l,0.2541634159988462,None,11,0,77,5,115.1389390409986,,115.12932045799971,115.1389390409986,116.12798533299974,116.12798533299974,116.13624270799846,116.38841129100001,l,0.2541634159988462,None,2,001,2024-11-30_15h13.26.077,Delay Discounting,2024.2.4,119.15424223559961,2024-11-30 15h13.33.089323 +0530,
27,50,21,78,1,11,l,0.017182165998747223,None,11,1,78,2,116.40631854099956,,116.39450399999987,116.40631854099956,117.38654041599875,117.38654041599875,117.40372733299955,117.40642924999884,l,0.017182165998747223,None,2,001,2024-11-30_15h13.26.077,Delay Discounting,2024.2.4,119.15424223559961,2024-11-30 15h13.33.089323 +0530,
15,35,13,79,2,11,t,0.13601875000131258,None,11,2,79,1,117.42446895799912,,117.41243491599926,117.42446895799912,118.40614720799931,118.40614720799931,118.42589495799984,118.5450160829987,t,0.13601875000131258,None,2,001,2024-11-30_15h13.26.077,Delay Discounting,2024.2.4,119.15424223559961,2024-11-30 15h13.33.089323 +0530,
11,30,7,80,3,11,t,0.09708316599972022,None,11,3,80,0,118.55785454099896,,118.5499248749984,118.55785454099896,119.54733758299881,119.54733758299881,119.5566481249989,119.65584837499955,t,0.09708316599972022,None,2,001,2024-11-30_15h13.26.077,Delay Discounting,2024.2.4,119.15424223559961,2024-11-30 15h13.33.089323 +0530,
78,80,162,81,4,11,l,0.04716979099976015,None,11,4,81,6,119.66982349999853,,119.65956716599976,119.66982349999853,120.65234116600004,120.65234116600004,120.6602111659995,120.70477649999884,l,0.04716979099976015,None,2,001,2024-11-30_15h13.26.077,Delay Discounting,2024.2.4,119.15424223559961,2024-11-30 15h13.33.089323 +0530,
49,60,89,82,5,11,t,0.0630126249998284,None,11,5,82,4,120.71895191599833,,120.71001054099906,120.71895191599833,121.70253841599879,121.70253841599879,121.71093595799903,121.77368224999918,t,0.0630126249998284,None,2,001,2024-11-30_15h13.26.077,Delay Discounting,2024.2.4,119.15424223559961,2024-11-30 15h13.33.089323 +0530,
40,55,62,83,6,11,t,0.0853884169991943,None,11,6,83,3,121.7928269999993,,121.78076599999986,121.7928269999993,122.7688323329985,122.7688323329985,122.78537095799948,122.86191612499897,t,0.0853884169991943,None,2,001,2024-11-30_15h13.26.077,Delay Discounting,2024.2.4,119.15424223559961,2024-11-30 15h13.33.089323 +0530,
11,30,7,84,0,12,l,0.007889958000305342,None,12,0,84,0,122.8743372079989,,122.86654404099863,122.8743372079989,123.86012583299998,123.86012583299998,123.8686163329985,123.87036270799945,l,0.007889958000305342,None,2,001,2024-11-30_15h13.26.077,Delay Discounting,2024.2.4,119.15424223559961,2024-11-30 15h13.33.089323 +0530,
49,60,89,85,1,12,l,0.09881754199886927,None,12,1,85,4,123.88300274999892,,123.87478370799909,123.88300274999892,124.86120799999844,124.86120799999844,124.88653004099979,124.9703124159987,l,0.09881754199886927,None,2,001,2024-11-30_15h13.26.077,Delay Discounting,2024.2.4,119.15424223559961,2024-11-30 15h13.33.089323 +0530,
67,76,119,86,2,12,l,0.07469070899969665,None,12,2,86,5,124.98204895799972,,124.97443145799843,124.98204895799972,125.96871833299883,125.96871833299883,125.98101574999964,126.04577433299892,l,0.07469070899969665,None,2,001,2024-11-30_15h13.26.077,Delay Discounting,2024.2.4,119.15424223559961,2024-11-30 15h13.33.089323 +0530,
40,55,62,87,3,12,t,0.01833200000146462,None,12,3,87,3,126.0580149999987,,126.05010433299867,126.0580149999987,127.04522329099927,127.04522329099927,127.05384995799977,127.07071808299952,t,0.01833200000146462,None,2,001,2024-11-30_15h13.26.077,Delay Discounting,2024.2.4,119.15424223559961,2024-11-30 15h13.33.089323 +0530,
15,35,13,88,4,12,l,0.03671779099931882,None,12,4,88,1,127.08228491599948,,127.07488041599936,127.08228491599948,128.07772120799928,128.07772120799928,128.07772120799928,128.12225087499974,l,0.03671779099931882,None,2,001,2024-11-30_15h13.26.077,Delay Discounting,2024.2.4,119.15424223559961,2024-11-30 15h13.33.089323 +0530,
78,80,162,89,5,12,t,0.13080933300079778,None,12,5,89,6,128.1378456659986,,128.12767287499992,128.1378456659986,129.12854974999937,129.12854974999937,129.1373520829984,129.26266533299895,t,0.13080933300079778,None,2,001,2024-11-30_15h13.26.077,Delay Discounting,2024.2.4,119.15424223559961,2024-11-30 15h13.33.089323 +0530,
27,50,21,90,6,12,t,0.027024999999412103,None,12,6,90,2,129.2768766249992,,129.26865949999956,129.2768766249992,130.2605830829998,130.2605830829998,130.26914820799902,130.2947354579992,t,0.027024999999412103,None,2,001,2024-11-30_15h13.26.077,Delay Discounting,2024.2.4,119.15424223559961,2024-11-30 15h13.33.089323 +0530,
67,76,119,91,0,13,t,0.10194658300133597,None,13,0,91,5,130.30678999999873,,130.29908654099927,130.30678999999873,131.2860450829994,131.2860450829994,131.3018430409993,131.3950482909986,t,0.10194658300133597,None,2,001,2024-11-30_15h13.26.077,Delay Discounting,2024.2.4,119.15424223559961,2024-11-30 15h13.33.089323 +0530,
11,30,7,92,1,13,l,0.09027866599899426,None,13,1,92,0,131.40707145799934,,131.3992764579998,131.40707145799934,132.40333679099967,132.40333679099967,132.4115110829989,132.50492095799927,l,0.09027866599899426,None,2,001,2024-11-30_15h13.26.077,Delay Discounting,2024.2.4,119.15424223559961,2024-11-30 15h13.33.089323 +0530,
27,50,21,93,2,13,t,0.021960041998681845,None,13,2,93,2,132.51753687499877,,132.50960795799983,132.51753687499877,133.5021432909998,133.5021432909998,133.51012374999846,133.52796041599868,t,0.021960041998681845,None,2,001,2024-11-30_15h13.26.077,Delay Discounting,2024.2.4,119.15424223559961,2024-11-30 15h13.33.089323 +0530,
78,80,162,94,3,13,t,0.08287737499995274,None,13,3,94,6,133.54031795799892,,133.53271579099965,133.54031795799892,134.52811141599886,134.52811141599886,134.53664304099948,134.6212388749991,t,0.08287737499995274,None,2,001,2024-11-30_15h13.26.077,Delay Discounting,2024.2.4,119.15424223559961,2024-11-30 15h13.33.089323 +0530,
40,55,62,95,4,13,t,0.1003512920015055,None,13,4,95,3,134.63377079099882,,134.62634649999927,134.63377079099882,135.6195942079994,135.6195942079994,135.6257202910001,135.72746133299916,t,0.1003512920015055,None,2,001,2024-11-30_15h13.26.077,Delay Discounting,2024.2.4,119.15424223559961,2024-11-30 15h13.33.089323 +0530,
15,35,13,96,5,13,l,0.07360916700054077,None,13,5,96,1,135.74017645799904,,135.73207012499915,135.74017645799904,136.71914095799912,136.71914095799912,136.7355824999995,136.7954741249996,l,0.07360916700054077,None,2,001,2024-11-30_15h13.26.077,Delay Discounting,2024.2.4,119.15424223559961,2024-11-30 15h13.33.089323 +0530,
49,60,89,97,6,13,l,0.015682041999752983,None,13,6,97,4,136.80733979099932,,136.799463207999,136.80733979099932,137.7933008330001,137.7933008330001,137.80189062499994,137.81132587499997,l,0.015682041999752983,None,2,001,2024-11-30_15h13.26.077,Delay Discounting,2024.2.4,119.15424223559961,2024-11-30 15h13.33.089323 +0530,
49,60,89,98,0,14,l,0.06623612500152376,None,14,0,98,4,137.82129691599948,,137.8117304999996,137.82129691599948,138.8094039159987,138.8094039159987,138.83596224999928,138.88101199999983,l,0.06623612500152376,None,2,001,2024-11-30_15h13.26.077,Delay Discounting,2024.2.4,119.15424223559961,2024-11-30 15h13.33.089323 +0530,
40,55,62,99,1,14,l,0.026710499998443993,None,14,1,99,3,138.89419033299964,,138.88619758299865,138.89419033299964,139.87625708299856,139.87625708299856,139.89211174999946,139.90428637500008,l,0.026710499998443993,None,2,001,2024-11-30_15h13.26.077,Delay Discounting,2024.2.4,119.15424223559961,2024-11-30 15h13.33.089323 +0530,
11,30,7,100,2,14,l,0.17079512500095007,None,14,2,100,0,139.9162144999991,,139.9084814580001,139.9162144999991,140.89835870799834,140.89835870799834,140.9200541249993,141.0718014159993,l,0.17079512500095007,None,2,001,2024-11-30_15h13.26.077,Delay Discounting,2024.2.4,119.15424223559961,2024-11-30 15h13.33.089323 +0530,
27,50,21,101,3,14,t,0.055321458999969764,None,14,3,101,2,141.14863749999859,,141.14002512499974,141.14863749999859,142.06959562499833,142.06959562499833,,142.12796487499872,t,0.055321458999969764,None,2,001,2024-11-30_15h13.26.077,Delay Discounting,2024.2.4,119.15424223559961,2024-11-30 15h13.33.089323 +0530,
15,35,13,102,4,14,t,0.029280750000907574,None,14,4,102,1,142.1401650409989,,142.131960875,142.1401650409989,143.12611274999836,143.12611274999836,143.13452487499853,143.1607816249998,t,0.029280750000907574,None,2,001,2024-11-30_15h13.26.077,Delay Discounting,2024.2.4,119.15424223559961,2024-11-30 15h13.33.089323 +0530,
78,80,162,103,5,14,t,0.04923879200032388,None,14,5,103,6,143.17344562499966,,143.16487329099982,143.17344562499966,144.1698699159988,144.1698699159988,144.178151832999,144.22180545799893,t,0.04923879200032388,None,2,001,2024-11-30_15h13.26.077,Delay Discounting,2024.2.4,119.15424223559961,2024-11-30 15h13.33.089323 +0530,
67,76,119,104,6,14,t,0.024852124999597436,None,14,6,104,5,144.23544287499863,,144.2275123749987,144.23544287499863,145.2195741659998,145.2195741659998,145.22928266599956,145.24676741599978,t,0.024852124999597436,None,2,001,2024-11-30_15h13.26.077,Delay Discounting,2024.2.4,119.15424223559961,2024-11-30 15h13.33.089323 +0530,
