reward_today,future_reward,delay,thisN,thisTrialN,thisRepN,key_resp.keys,key_resp.rt,key_resp.duration,trials.thisRepN,trials.thisTrialN,trials.thisN,trials.thisIndex,thisRow.t,notes,trial.started,Fixation.started,text.started,key_resp.started,Fixation.stopped,trial.stopped,trials.key_resp.keys,trials.key_resp.rt,trials.key_resp.duration,participant,session,date,expName,psychopyVersion,frameRate,expStart,
27,50,21,0,0,0,l,0.8014820409989625,None,0,0,0,2,0.042826000000786735,,0.03365604099963093,0.042826000000786735,1.0096768330004124,1.0096768330004124,1.03439787500065,1.8524847909993696,l,0.8014820409989625,None,3,001,2024-11-30_15h19.42.202,Delay Discounting,2024.2.4,116.73918232083851,2024-11-30 15h19.59.118220 +0530,
40,55,62,1,1,0,l,0.02689079199990374,None,0,1,1,3,1.870737666000423,,1.8577873750000435,1.870737666000423,2.853538249999474,2.853538249999474,2.8624970830005623,2.8883889999997336,l,0.02689079199990374,None,3,001,2024-11-30_15h19.42.202,Delay Discounting,2024.2.4,116.73918232083851,2024-11-30 15h19.59.118220 +0530,
78,80,162,2,2,0,t,0.05004620899853762,None,0,2,2,6,2.90397508299975,,2.8961663330010197,2.90397508299975,3.8832867500004795,3.8832867500004795,3.8994680409996363,3.9441218329993717,t,0.05004620899853762,None,3,001,2024-11-30_15h19.42.202,Delay Discounting,2024.2.4,116.73918232083851,2024-11-30 15h19.59.118220 +0530,
15,35,13,3,3,0,l,0.10070762500072306,None,0,3,3,1,3.9571895410008437,,3.9495243330002268,3.9571895410008437,4.958508290999816,4.958508290999816,4.958508290999816,5.067312666000362,l,0.10070762500072306,None,3,001,2024-11-30_15h19.42.202,Delay Discounting,2024.2.4,116.73918232083851,2024-11-30 15h19.59.118220 +0530,
49,60,89,4,4,0,l,0.01281570900027873,None,0,4,4,4,5.0845013750004,,5.075863041000048,5.0845013750004,6.065883540999494,6.065883540999494,6.080882915999609,6.082712290999552,l,0.01281570900027873,None,3,001,2024-11-30_15h19.42.202,Delay Discounting,2024.2.4,116.73918232083851,2024-11-30 15h19.59.118220 +0530,
11,30,7,5,5,0,t,0.09069991599972127,None,0,5,5,0,6.096001249999972,,6.087460541000837,6.096001249999972,7.081498333000127,7.081498333000127,7.09216854099941,7.175554290999571,t,0.09069991599972127,None,3,001,2024-11-30_15h19.42.202,Delay Discounting,2024.2.4,116.73918232083851,2024-11-30 15h19.59.118220 +0530,
67,76,119,6,6,0,t,0.057976791000328376,None,0,6,6,5,7.188150083000437,,7.179852875000506,7.188150083000437,8.167496083000515,8.167496083000515,8.192189249999501,8.228241208000327,t,0.057976791000328376,None,3,001,2024-11-30_15h19.42.202,Delay Discounting,2024.2.4,116.73918232083851,2024-11-30 15h19.59.118220 +0530,
40,55,62,7,0,1,l,0.0496435000004567,None,1,0,7,3,8.243744499999593,,8.233816416000991,8.243744499999593,9.224366750000627,9.224366750000627,9.241036416000497,9.281492833000812,l,0.0496435000004567,None,3,001,2024-11-30_15h19.42.202,Delay Discounting,2024.2.4,116.73918232083851,2024-11-30 15h19.59.118220 +0530,
78,80,162,8,1,1,l,0.02878983400114521,None,1,1,8,6,9.295097791000444,,9.2859493750002,9.295097791000444,10.27558450000106,10.27558450000106,10.292162208001173,10.309639625000273,l,0.02878983400114521,None,3,001,2024-11-30_15h19.42.202,Delay Discounting,2024.2.4,116.73918232083851,2024-11-30 15h19.59.118220 +0530,
27,50,21,9,2,1,t,0.054101124998851446,None,1,2,9,2,10.322496541000874,,10.314315707999413,10.322496541000874,11.30451470800108,11.30451470800108,11.325367458000983,11.362376375000167,t,0.054101124998851446,None,3,001,2024-11-30_15h19.42.202,Delay Discounting,2024.2.4,116.73918232083851,2024-11-30 15h19.59.118220 +0530,
67,76,119,10,3,1,t,0.01785866700083716,None,1,3,10,5,11.374086207999426,,11.366212832999736,11.374086207999426,12.357937541000865,12.357937541000865,12.366118666001057,12.384607875001166,t,0.01785866700083716,None,3,001,2024-11-30_15h19.42.202,Delay Discounting,2024.2.4,116.73918232083851,2024-11-30 15h19.59.118220 +0530,
11,30,7,11,4,1,t,0.11202637499991397,None,1,4,11,0,12.401004958001067,,12.39171504099977,12.401004958001067,13.38363974999993,13.38363974999993,13.392366457999742,13.502299125000718,t,0.11202637499991397,None,3,001,2024-11-30_15h19.42.202,Delay Discounting,2024.2.4,116.73918232083851,2024-11-30 15h19.59.118220 +0530,
15,35,13,12,5,1,t,0.1530758330009121,None,1,5,12,1,13.517131583001174,,13.508759791000557,13.517131583001174,14.505739583000832,14.505739583000832,14.512078083000233,14.6690793329999,t,0.1530758330009121,None,3,001,2024-11-30_15h19.42.202,Delay Discounting,2024.2.4,116.73918232083851,2024-11-30 15h19.59.118220 +0530,
49,60,89,13,6,1,t,0.046811459000309696,None,1,6,13,4,14.68292241600102,,14.674871916000484,14.68292241600102,15.667137915999774,15.667137915999774,15.675865208000687,15.716449875000762,t,0.046811459000309696,None,3,001,2024-11-30_15h19.42.202,Delay Discounting,2024.2.4,116.73918232083851,2024-11-30 15h19.59.118220 +0530,
11,30,7,14,0,2,l,0.018335499999011518,None,2,0,14,0,15.72944245799954,,15.720666208000694,15.72944245799954,16.70862237500114,16.70862237500114,16.726762874999622,16.729704790999676,l,0.018335499999011518,None,3,001,2024-11-30_15h19.42.202,Delay Discounting,2024.2.4,116.73918232083851,2024-11-30 15h19.59.118220 +0530,
67,76,119,15,1,2,l,0.04582158300036099,None,2,1,15,5,16.743884666000667,,16.735031750000417,16.743884666000667,17.72931891600092,17.72931891600092,17.7423410829997,17.79378050000014,l,0.04582158300036099,None,3,001,2024-11-30_15h19.42.202,Delay Discounting,2024.2.4,116.73918232083851,2024-11-30 15h19.59.118220 +0530,
15,35,13,16,2,2,l,0.07420570800059068,None,2,2,16,1,17.809862375001103,,17.79940833299952,17.809862375001103,18.792096708000827,18.792096708000827,18.80857441599983,18.86788845800038,l,0.07420570800059068,None,3,001,2024-11-30_15h19.42.202,Delay Discounting,2024.2.4,116.73918232083851,2024-11-30 15h19.59.118220 +0530,
49,60,89,17,3,2,l,0.057436832999883336,None,2,3,17,4,18.880490333000125,,18.872358041000552,18.880490333000125,19.866693625001062,19.866693625001062,19.875097083000583,19.92627295800048,l,0.057436832999883336,None,3,001,2024-11-30_15h19.42.202,Delay Discounting,2024.2.4,116.73918232083851,2024-11-30 15h19.59.118220 +0530,
78,80,162,18,4,2,t,0.044104083001002437,None,2,4,18,6,19.93852754100044,,19.930427540999517,19.93852754100044,20.92601170800117,20.92601170800117,20.933770166000613,20.976344500000778,t,0.044104083001002437,None,3,001,2024-11-30_15h19.42.202,Delay Discounting,2024.2.4,116.73918232083851,2024-11-30 15h19.59.118220 +0530,
40,55,62,19,5,2,t,0.08107516699965345,None,2,5,19,3,20.988805541001057,,20.981389083000977,20.988805541001057,21.972823665999385,21.972823665999385,21.980285916000867,22.059635916000843,t,0.08107516699965345,None,3,001,2024-11-30_15h19.42.202,Delay Discounting,2024.2.4,116.73918232083851,2024-11-30 15h19.59.118220 +0530,
27,50,21,20,6,2,l,0.04074608399969293,None,2,6,20,2,22.072118915999454,,22.06405870799972,22.072118915999454,23.058175457999823,23.058175457999823,23.070854999999938,23.10386570800074,l,0.04074608399969293,None,3,001,2024-11-30_15h19.42.202,Delay Discounting,2024.2.4,116.73918232083851,2024-11-30 15h19.59.118220 +0530,
49,60,89,21,0,3,t,0.0756684160005534,None,3,0,21,4,23.1166143749997,,23.108218625000518,23.1166143749997,24.099756916000842,24.099756916000842,24.10830920800072,24.18367145800039,t,0.0756684160005534,None,3,001,2024-11-30_15h19.42.202,Delay Discounting,2024.2.4,116.73918232083851,2024-11-30 15h19.59.118220 +0530,
11,30,7,22,1,3,t,0.06616616700011946,None,3,1,22,0,24.1962059159996,,24.187936665999587,24.1962059159996,25.18171904100018,25.18171904100018,25.19191041600061,25.250397666000936,t,0.06616616700011946,None,3,001,2024-11-30_15h19.42.202,Delay Discounting,2024.2.4,116.73918232083851,2024-11-30 15h19.59.118220 +0530,
78,80,162,23,2,3,t,0.0018532920003053732,None,3,2,23,6,25.262680707999607,,25.254264875000445,25.262680707999607,26.258782000000792,26.258782000000792,26.275752290999662,26.278051499999492,t,0.0018532920003053732,None,3,001,2024-11-30_15h19.42.202,Delay Discounting,2024.2.4,116.73918232083851,2024-11-30 15h19.59.118220 +0530,
67,76,119,24,3,3,t,0.05779029200130026,None,3,3,24,5,26.29287770799965,,26.283428165999794,26.29287770799965,27.275685750000775,27.275685750000775,27.28393933299958,27.34300291600084,t,0.05779029200130026,None,3,001,2024-11-30_15h19.42.202,Delay Discounting,2024.2.4,116.73918232083851,2024-11-30 15h19.59.118220 +0530,
15,35,13,25,4,3,l,0.07510412500050734,None,3,4,25,1,27.355467499999577,,27.34655279100116,27.355467499999577,28.332959040999413,28.332959040999413,28.348922749999474,28.416994375000286,l,0.07510412500050734,None,3,001,2024-11-30_15h19.42.202,Delay Discounting,2024.2.4,116.73918232083851,2024-11-30 15h19.59.118220 +0530,
40,55,62,26,5,3,l,0.07079295899893623,None,3,5,26,3,28.42935212500015,,28.421566291001,28.42935212500015,29.416832000000795,29.416832000000795,29.42789516599987,29.494582540999545,l,0.07079295899893623,None,3,001,2024-11-30_15h19.42.202,Delay Discounting,2024.2.4,116.73918232083851,2024-11-30 15h19.59.118220 +0530,
27,50,21,27,6,3,t,0.02327066599900718,None,3,6,27,2,29.508743541000513,,29.49957783299942,29.508743541000513,30.49146962499981,30.49146962499981,30.503629291000834,30.526419916001032,t,0.02327066599900718,None,3,001,2024-11-30_15h19.42.202,Delay Discounting,2024.2.4,116.73918232083851,2024-11-30 15h19.59.118220 +0530,
40,55,62,28,0,4,t,0.059985416000927216,None,4,0,28,3,30.538335082999765,,30.530709165999724,30.538335082999765,31.52418254099939,31.52418254099939,31.53241520800111,31.593591832999664,t,0.059985416000927216,None,3,001,2024-11-30_15h19.42.202,Delay Discounting,2024.2.4,116.73918232083851,2024-11-30 15h19.59.118220 +0530,
11,30,7,29,1,4,l,0.03560000000106811,None,4,1,29,0,31.606813583000985,,31.59843166599967,31.606813583000985,32.591008916000646,32.591008916000646,32.598003166000126,32.634456333000344,l,0.03560000000106811,None,3,001,2024-11-30_15h19.42.202,Delay Discounting,2024.2.4,116.73918232083851,2024-11-30 15h19.59.118220 +0530,
49,60,89,30,2,4,l,0.0614395840002544,None,4,2,30,4,32.6462109160002,,32.638779000000795,32.6462109160002,33.64238566600034,33.64238566600034,33.650781083000766,33.71109170800082,l,0.0614395840002544,None,3,001,2024-11-30_15h19.42.202,Delay Discounting,2024.2.4,116.73918232083851,2024-11-30 15h19.59.118220 +0530,
67,76,119,31,3,4,t,0.03341966600055457,None,4,3,31,5,33.72364204100086,,33.71593179100091,33.72364204100086,34.70941183300056,34.70941183300056,34.71710945800078,34.750683874999595,t,0.03341966600055457,None,3,001,2024-11-30_15h19.42.202,Delay Discounting,2024.2.4,116.73918232083851,2024-11-30 15h19.59.118220 +0530,
78,80,162,32,4,4,t,0.049551416999747744,None,4,4,32,6,34.76252791600018,,34.75479320799968,34.76252791600018,35.74779866599965,35.74779866599965,35.758646000000226,35.79977504099952,t,0.049551416999747744,None,3,001,2024-11-30_15h19.42.202,Delay Discounting,2024.2.4,116.73918232083851,2024-11-30 15h19.59.118220 +0530,
27,50,21,33,5,4,t,0.08544920799977263,None,4,5,33,2,35.81247691600038,,35.80356424999991,35.81247691600038,36.79075479099993,36.79075479099993,36.80759625000064,36.882907790999525,t,0.08544920799977263,None,3,001,2024-11-30_15h19.42.202,Delay Discounting,2024.2.4,116.73918232083851,2024-11-30 15h19.59.118220 +0530,
15,35,13,34,6,4,l,0.016592457999649923,None,4,6,34,1,36.89598766600102,,36.88709220800047,36.89598766600102,37.8751292500001,37.8751292500001,37.89503395800057,37.89672087500003,l,0.016592457999649923,None,3,001,2024-11-30_15h19.42.202,Delay Discounting,2024.2.4,116.73918232083851,2024-11-30 15h19.59.118220 +0530,
15,35,13,35,0,5,l,0.10019283300061943,None,5,0,35,1,37.90674150000086,,37.89705641600085,37.90674150000086,38.89188620800087,38.89188620800087,38.89815308300058,38.9943497080003,l,0.10019283300061943,None,3,001,2024-11-30_15h19.42.202,Delay Discounting,2024.2.4,116.73918232083851,2024-11-30 15h19.59.118220 +0530,
11,30,7,36,1,5,t,0.13656766600070114,None,5,1,36,0,39.00760366600116,,38.99989925000045,39.00760366600116,39.99133045800045,39.99133045800045,40.00001054099994,40.13607983300062,t,0.13656766600070114,None,3,001,2024-11-30_15h19.42.202,Delay Discounting,2024.2.4,116.73918232083851,2024-11-30 15h19.59.118220 +0530,
49,60,89,37,2,5,t,0.11659412500011967,None,5,2,37,4,40.15006816599998,,40.14209991600001,40.15006816599998,41.131503165999675,41.131503165999675,41.149121208,41.25239875000079,t,0.11659412500011967,None,3,001,2024-11-30_15h19.42.202,Delay Discounting,2024.2.4,116.73918232083851,2024-11-30 15h19.59.118220 +0530,
67,76,119,38,3,5,t,0.024124083000060637,None,5,3,38,5,41.26705425,,41.257556374999695,41.26705425,42.250646415999654,42.250646415999654,42.25793416600027,42.27668870799971,t,0.024124083000060637,None,3,001,2024-11-30_15h19.42.202,Delay Discounting,2024.2.4,116.73918232083851,2024-11-30 15h19.59.118220 +0530,
40,55,62,39,4,5,l,0.008401541001148871,None,5,4,39,3,42.29012904100091,,42.28108654100106,42.29012904100091,43.274086125000395,43.274086125000395,43.281996583000364,43.29359887499959,l,0.008401541001148871,None,3,001,2024-11-30_15h19.42.202,Delay Discounting,2024.2.4,116.73918232083851,2024-11-30 15h19.59.118220 +0530,
27,50,21,40,5,5,l,0.14999600000010105,None,5,5,40,2,43.30744608299938,,43.29847625000002,43.30744608299938,44.29213758300102,44.29213758300102,44.29848691600091,44.44449999999961,l,0.14999600000010105,None,3,001,2024-11-30_15h19.42.202,Delay Discounting,2024.2.4,116.73918232083851,2024-11-30 15h19.59.118220 +0530,
78,80,162,41,6,5,t,2.845687541999723,None,5,6,41,6,44.45792962499945,,44.44903449999947,44.45792962499945,45.442572916001154,45.442572916001154,45.45129787500082,48.293518041000425,t,2.845687541999723,None,3,001,2024-11-30_15h19.42.202,Delay Discounting,2024.2.4,116.73918232083851,2024-11-30 15h19.59.118220 +0530,
67,76,119,42,0,6,l,0.0964344580006582,None,6,0,42,5,48.31057958299971,,48.29900720800106,48.31057958299971,49.295634000000064,49.295634000000064,49.30864441599988,49.39425758300058,l,0.0964344580006582,None,3,001,2024-11-30_15h19.42.202,Delay Discounting,2024.2.4,116.73918232083851,2024-11-30 15h19.59.118220 +0530,
78,80,162,43,1,6,l,0.008217040998715675,None,6,1,43,6,49.40773629100113,,49.39862479099975,49.40773629100113,50.39091287500014,50.39091287500014,50.3990134579999,50.40162116600004,l,0.008217040998715675,None,3,001,2024-11-30_15h19.42.202,Delay Discounting,2024.2.4,116.73918232083851,2024-11-30 15h19.59.118220 +0530,
11,30,7,44,2,6,t,0.059108833000209415,None,6,2,44,0,50.41418283300118,,50.405959457999415,50.41418283300118,51.398926707999635,51.398926707999635,51.41223416600042,51.46020708300057,t,0.059108833000209415,None,3,001,2024-11-30_15h19.42.202,Delay Discounting,2024.2.4,116.73918232083851,2024-11-30 15h19.59.118220 +0530,
15,35,13,45,3,6,t,0.05211366699950304,None,6,3,45,1,51.472219332999885,,51.46427491600116,51.472219332999885,52.463180083001134,52.463180083001134,52.463180083001134,52.517204540999955,t,0.05211366699950304,None,3,001,2024-11-30_15h19.42.202,Delay Discounting,2024.2.4,116.73918232083851,2024-11-30 15h19.59.118220 +0530,
27,50,21,46,4,6,t,0.0680186669997056,None,6,4,46,2,52.52884620800069,,52.521117791000506,52.52884620800069,53.51967458299987,53.51967458299987,53.52713229099936,53.59240608300024,t,0.0680186669997056,None,3,001,2024-11-30_15h19.42.202,Delay Discounting,2024.2.4,116.73918232083851,2024-11-30 15h19.59.118220 +0530,
49,60,89,47,5,6,l,0.01844462500048394,None,6,5,47,4,53.60452350000014,,53.59643295800015,53.60452350000014,54.581422666000435,54.581422666000435,54.59948174999954,54.60835504100032,l,0.01844462500048394,None,3,001,2024-11-30_15h19.42.202,Delay Discounting,2024.2.4,116.73918232083851,2024-11-30 15h19.59.118220 +0530,
40,55,62,48,6,6,l,0.0934201670006587,None,6,6,48,3,54.61988383300013,,54.612508624999464,54.61988383300013,55.60902991600051,55.60902991600051,55.61529116600104,55.71037762500055,l,0.0934201670006587,None,3,001,2024-11-30_15h19.42.202,Delay Discounting,2024.2.4,116.73918232083851,2024-11-30 15h19.59.118220 +0530,
49,60,89,49,0,7,t,0.016366666000976693,None,7,0,49,4,55.72217483299937,,55.71460991599997,55.72217483299937,56.70782958299969,56.70782958299969,56.71596008300003,56.72696941600043,t,0.016366666000976693,None,3,001,2024-11-30_15h19.42.202,Delay Discounting,2024.2.4,116.73918232083851,2024-11-30 15h19.59.118220 +0530,
67,76,119,50,1,7,t,None,None,7,1,50,5,56.743626625000616,,56.732950416000676,56.743626625000616,57.72547858300095,57.72547858300095,57.74491408299946,57.792193208000754,t,None,None,3,001,2024-11-30_15h19.42.202,Delay Discounting,2024.2.4,116.73918232083851,2024-11-30 15h19.59.118220 +0530,
11,30,7,51,2,7,t,0.004697791999205947,None,7,2,51,0,57.80351900000096,,57.796490250000716,57.80351900000096,58.78349916600018,58.78349916600018,58.8117764159997,58.79497437499958,t,0.004697791999205947,None,3,001,2024-11-30_15h19.42.202,Delay Discounting,2024.2.4,116.73918232083851,2024-11-30 15h19.59.118220 +0530,
78,80,162,52,3,7,l,0.048796707998917555,None,7,3,52,6,58.8117764159997,,58.80095833300038,58.8117764159997,59.7911935000011,59.7911935000011,59.807961665999755,59.842752541000664,l,0.048796707998917555,None,3,001,2024-11-30_15h19.42.202,Delay Discounting,2024.2.4,116.73918232083851,2024-11-30 15h19.59.118220 +0530,
15,35,13,53,4,7,t,0.0706089579998661,None,7,4,53,1,59.85437045800063,,59.84706645799997,59.85437045800063,60.84325583300051,60.84325583300051,60.85116733299947,60.917633832999854,t,0.0706089579998661,None,3,001,2024-11-30_15h19.42.202,Delay Discounting,2024.2.4,116.73918232083851,2024-11-30 15h19.59.118220 +0530,
27,50,21,54,5,7,l,0.038422208999691065,None,7,5,54,2,60.932710125000085,,60.923629666000124,60.932710125000085,61.91851566600053,61.91851566600053,61.92710487499971,61.95998362499995,l,0.038422208999691065,None,3,001,2024-11-30_15h19.42.202,Delay Discounting,2024.2.4,116.73918232083851,2024-11-30 15h19.59.118220 +0530,
40,55,62,55,6,7,l,0.046227041999372886,None,7,6,55,3,61.97239916599938,,61.9642665829997,61.97239916599938,62.95784241600086,62.95784241600086,62.965838207999695,63.00928195800043,l,0.046227041999372886,None,3,001,2024-11-30_15h19.42.202,Delay Discounting,2024.2.4,116.73918232083851,2024-11-30 15h19.59.118220 +0530,
40,55,62,56,0,8,l,0.05198379200010095,None,8,0,56,3,63.01914108300116,,63.00962687500032,63.01914108300116,64.00730454100085,64.00730454100085,64.0143557499996,64.06554574999973,l,0.05198379200010095,None,3,001,2024-11-30_15h19.42.202,Delay Discounting,2024.2.4,116.73918232083851,2024-11-30 15h19.59.118220 +0530,
11,30,7,57,1,8,l,0.09199708300002385,None,8,1,57,0,64.07817579100083,,64.06938904100025,64.07817579100083,65.05746412500048,65.05746412500048,65.07413629099938,65.15192025000033,l,0.09199708300002385,None,3,001,2024-11-30_15h19.42.202,Delay Discounting,2024.2.4,116.73918232083851,2024-11-30 15h19.59.118220 +0530,
67,76,119,58,2,8,t,0.05593770800078346,None,8,2,58,5,65.1645124580009,,65.15643975000057,65.1645124580009,66.14944433300116,66.14944433300116,66.15729770799953,66.21029262500087,t,0.05593770800078346,None,3,001,2024-11-30_15h19.42.202,Delay Discounting,2024.2.4,116.73918232083851,2024-11-30 15h19.59.118220 +0530,
15,35,13,59,3,8,t,0.14166041600037715,None,8,3,59,1,66.22452683300071,,66.21532750000006,66.22452683300071,67.20723433300009,67.20723433300009,67.21561624999958,67.36013275000005,t,0.14166041600037715,None,3,001,2024-11-30_15h19.42.202,Delay Discounting,2024.2.4,116.73918232083851,2024-11-30 15h19.59.118220 +0530,
27,50,21,60,4,8,l,0.08669554199877894,None,8,4,60,2,67.37283308299993,,67.36529745799999,67.37283308299993,68.36157258300045,68.36157258300045,68.3750453749999,68.44962129099986,l,0.08669554199877894,None,3,001,2024-11-30_15h19.42.202,Delay Discounting,2024.2.4,116.73918232083851,2024-11-30 15h19.59.118220 +0530,
49,60,89,61,5,8,t,0.16806104200077243,None,8,5,61,4,68.46212487500088,,68.45410712500052,68.46212487500088,69.4481456249996,69.4481456249996,69.45782679100012,69.62665841600028,t,0.16806104200077243,None,3,001,2024-11-30_15h19.42.202,Delay Discounting,2024.2.4,116.73918232083851,2024-11-30 15h19.59.118220 +0530,
78,80,162,62,6,8,t,0.026152040998567827,None,8,6,62,6,69.63882895800089,,69.6312899580007,69.63882895800089,70.62389358300061,70.62389358300061,70.63189695800065,70.66044800000054,t,0.026152040998567827,None,3,001,2024-11-30_15h19.42.202,Delay Discounting,2024.2.4,116.73918232083851,2024-11-30 15h19.59.118220 +0530,
27,50,21,63,0,9,t,0.08290179200048442,None,9,0,63,2,70.67419370800053,,70.66521516600005,70.67419370800053,71.65846525000052,71.65846525000052,71.66477741600102,71.74418474999948,t,0.08290179200048442,None,3,001,2024-11-30_15h19.42.202,Delay Discounting,2024.2.4,116.73918232083851,2024-11-30 15h19.59.118220 +0530,
49,60,89,64,1,9,t,0.06979679100004432,None,9,1,64,4,71.76047012500021,,71.74975616600022,71.76047012500021,72.7415716659998,72.7415716659998,72.75805479100018,72.81696575000024,t,0.06979679100004432,None,3,001,2024-11-30_15h19.42.202,Delay Discounting,2024.2.4,116.73918232083851,2024-11-30 15h19.59.118220 +0530,
11,30,7,65,2,9,t,0.09378599999945436,None,9,2,65,0,72.82962508300079,,72.82194645799973,72.82962508300079,73.81419591600024,73.81419591600024,73.82550591600011,73.91044958299972,t,0.09378599999945436,None,3,001,2024-11-30_15h19.42.202,Delay Discounting,2024.2.4,116.73918232083851,2024-11-30 15h19.59.118220 +0530,
40,55,62,66,3,9,l,6.870817957998952,None,9,3,66,3,73.92379204099961,,73.91461424999943,73.92379204099961,74.90729795799962,74.90729795799962,74.9158959159995,81.78454795800099,l,6.870817957998952,None,3,001,2024-11-30_15h19.42.202,Delay Discounting,2024.2.4,116.73918232083851,2024-11-30 15h19.59.118220 +0530,
67,76,119,67,4,9,t,0.10482279099960579,None,9,4,67,5,81.80384795800092,,81.79211154100085,81.80384795800092,82.7919965000001,82.7919965000001,82.8007454159997,82.90118491599969,t,0.10482279099960579,None,3,001,2024-11-30_15h19.42.202,Delay Discounting,2024.2.4,116.73918232083851,2024-11-30 15h19.59.118220 +0530,
78,80,162,68,5,9,t,0.010825458999534021,None,9,5,68,6,82.91735279100067,,82.90793462500005,82.91735279100067,83.89376320799965,83.89376320799965,83.92104545800066,83.90921275000073,t,0.010825458999534021,None,3,001,2024-11-30_15h19.42.202,Delay Discounting,2024.2.4,116.73918232083851,2024-11-30 15h19.59.118220 +0530,
15,35,13,69,6,9,l,0.06418129200028488,None,9,6,69,1,83.92104545800066,,83.91287037500115,83.92104545800066,84.89914258300087,84.89914258300087,84.91448808300083,84.967593708001,l,0.06418129200028488,None,3,001,2024-11-30_15h19.42.202,Delay Discounting,2024.2.4,116.73918232083851,2024-11-30 15h19.59.118220 +0530,
78,80,162,70,0,10,t,0.019995165999716846,None,10,0,70,6,84.97937812500095,,84.9715612910004,84.97937812500095,85.96523516600064,85.96523516600064,85.97372529099994,85.99348562500018,t,0.019995165999716846,None,3,001,2024-11-30_15h19.42.202,Delay Discounting,2024.2.4,116.73918232083851,2024-11-30 15h19.59.118220 +0530,
11,30,7,71,1,10,t,0.049994042001344496,None,10,1,71,0,86.00529495800038,,85.9978931250007,86.00529495800038,86.99141058299938,86.99141058299938,86.99961545800033,87.04431099999965,t,0.049994042001344496,None,3,001,2024-11-30_15h19.42.202,Delay Discounting,2024.2.4,116.73918232083851,2024-11-30 15h19.59.118220 +0530,
27,50,21,72,2,10,t,0.08453300000110175,None,10,2,72,2,87.05773054100064,,87.04976029099998,87.05773054100064,88.04066966600112,88.04066966600112,88.0501961250011,88.13372479099962,t,0.08453300000110175,None,3,001,2024-11-30_15h19.42.202,Delay Discounting,2024.2.4,116.73918232083851,2024-11-30 15h19.59.118220 +0530,
40,55,62,73,3,10,t,0.1189659589999792,None,10,3,73,3,88.15124800000012,,88.14101466600005,88.15124800000012,89.12917154100069,89.12917154100069,89.14800699999978,89.25875220800117,t,0.1189659589999792,None,3,001,2024-11-30_15h19.42.202,Delay Discounting,2024.2.4,116.73918232083851,2024-11-30 15h19.59.118220 +0530,
49,60,89,74,4,10,t,0.18814554200071143,None,10,4,74,4,89.27065408300041,,89.2625814160001,89.27065408300041,90.24968329100011,90.24968329100011,90.27506141599952,90.44335175000015,t,0.18814554200071143,None,3,001,2024-11-30_15h19.42.202,Delay Discounting,2024.2.4,116.73918232083851,2024-11-30 15h19.59.118220 +0530,
67,76,119,75,5,10,t,0.07269283400091808,None,10,5,75,5,90.4567369159995,,90.44842641600007,90.4567369159995,91.44105695799954,91.44105695799954,91.44898300000023,91.51729941600024,t,0.07269283400091808,None,3,001,2024-11-30_15h19.42.202,Delay Discounting,2024.2.4,116.73918232083851,2024-11-30 15h19.59.118220 +0530,
15,35,13,76,6,10,t,0.05458737499975541,None,10,6,76,1,91.52934370799994,,91.52186804099983,91.52934370799994,92.51545158299996,92.51545158299996,92.52468391600087,92.57616404100008,t,0.05458737499975541,None,3,001,2024-11-30_15h19.42.202,Delay Discounting,2024.2.4,116.73918232083851,2024-11-30 15h19.59.118220 +0530,
15,35,13,77,0,11,l,0.0411198340007104,None,11,0,77,1,92.58586712500073,,92.57651545800036,92.58586712500073,93.57506970800023,93.57506970800023,93.58340291599961,93.62041475000115,l,0.0411198340007104,None,3,001,2024-11-30_15h19.42.202,Delay Discounting,2024.2.4,116.73918232083851,2024-11-30 15h19.59.118220 +0530,
49,60,89,78,1,11,t,0.08272608300103457,None,11,1,78,4,93.63520908300052,,93.62711520800076,93.63520908300052,94.61666433299979,94.61666433299979,94.63358641600098,94.70230000000083,t,0.08272608300103457,None,3,001,2024-11-30_15h19.42.202,Delay Discounting,2024.2.4,116.73918232083851,2024-11-30 15h19.59.118220 +0530,
78,80,162,79,2,11,t,0.007981124999787426,None,11,2,79,6,94.72043991600003,,94.70848912499969,94.72043991600003,95.69985358300073,95.69985358300073,95.72375754099994,95.7110983750008,t,0.007981124999787426,None,3,001,2024-11-30_15h19.42.202,Delay Discounting,2024.2.4,116.73918232083851,2024-11-30 15h19.59.118220 +0530,
11,30,7,80,3,11,l,0.008905957998649683,None,11,3,80,0,95.72375754099994,,95.71611649999977,95.72375754099994,96.70733112500056,96.70733112500056,96.71526866600107,96.72581900000114,l,0.008905957998649683,None,3,001,2024-11-30_15h19.42.202,Delay Discounting,2024.2.4,116.73918232083851,2024-11-30 15h19.59.118220 +0530,
67,76,119,81,4,11,l,0.05714366699976381,None,11,4,81,5,96.7392200409995,,96.73075075000088,96.7392200409995,97.72370779099947,97.72370779099947,97.73173866599973,97.7912616249996,l,0.05714366699976381,None,3,001,2024-11-30_15h19.42.202,Delay Discounting,2024.2.4,116.73918232083851,2024-11-30 15h19.59.118220 +0530,
40,55,62,82,5,11,t,0.07824945799984562,None,11,5,82,3,97.80383316600091,,97.79624295800022,97.80383316600091,98.7844219159997,98.7844219159997,98.80839595799989,98.86666650000006,t,0.07824945799984562,None,3,001,2024-11-30_15h19.42.202,Delay Discounting,2024.2.4,116.73918232083851,2024-11-30 15h19.59.118220 +0530,
27,50,21,83,6,11,t,0.18375025000023015,None,11,6,83,2,98.87985333300094,,98.87173404100031,98.87985333300094,99.86484429099983,99.86484429099983,99.87354541599962,100.05130304100021,t,0.18375025000023015,None,3,001,2024-11-30_15h19.42.202,Delay Discounting,2024.2.4,116.73918232083851,2024-11-30 15h19.59.118220 +0530,
15,35,13,84,0,12,t,0.03794183299942233,None,12,0,84,1,100.06404495800052,,100.05635854100001,100.06404495800052,101.04928295799982,101.04928295799982,101.05774383300013,101.09391191600116,t,0.03794183299942233,None,3,001,2024-11-30_15h19.42.202,Delay Discounting,2024.2.4,116.73918232083851,2024-11-30 15h19.59.118220 +0530,
27,50,21,85,1,12,t,0.11294133299998066,None,12,1,85,2,101.10840837500109,,101.09894945800079,101.10840837500109,102.0945861250002,102.0945861250002,102.10810312499962,102.21026891600013,t,0.11294133299998066,None,3,001,2024-11-30_15h19.42.202,Delay Discounting,2024.2.4,116.73918232083851,2024-11-30 15h19.59.118220 +0530,
40,55,62,86,2,12,l,0.05691566600035003,None,12,2,86,3,102.2240915830007,,102.21527683299973,102.2240915830007,103.216481458001,103.216481458001,103.216481458001,103.27720274999956,l,0.05691566600035003,None,3,001,2024-11-30_15h19.42.202,Delay Discounting,2024.2.4,116.73918232083851,2024-11-30 15h19.59.118220 +0530,
78,80,162,87,3,12,t,0.06723341600081767,None,12,3,87,6,103.29066191600032,,103.2813984580007,103.29066191600032,104.27379975000076,104.27379975000076,104.2816513329999,104.34384887499982,t,0.06723341600081767,None,3,001,2024-11-30_15h19.42.202,Delay Discounting,2024.2.4,116.73918232083851,2024-11-30 15h19.59.118220 +0530,
11,30,7,88,4,12,t,0.07099550000020827,None,12,4,88,0,104.35654758300007,,104.34889412499979,104.35654758300007,105.34154379100073,105.34154379100073,105.34940204099985,105.41709033299958,t,0.07099550000020827,None,3,001,2024-11-30_15h19.42.202,Delay Discounting,2024.2.4,116.73918232083851,2024-11-30 15h19.59.118220 +0530,
67,76,119,89,5,12,t,0.01438600000074075,None,12,5,89,5,105.43180233299972,,105.422147958001,105.43180233299972,106.41836208300083,106.41836208300083,106.42759549999937,106.44372020800074,t,0.01438600000074075,None,3,001,2024-11-30_15h19.42.202,Delay Discounting,2024.2.4,116.73918232083851,2024-11-30 15h19.59.118220 +0530,
49,60,89,90,6,12,t,0.037829667000551126,None,12,6,90,4,106.45925741599967,,106.4492220000011,106.45925741599967,107.44167883299997,107.44167883299997,107.4499975409999,107.48387029100013,t,0.037829667000551126,None,3,001,2024-11-30_15h19.42.202,Delay Discounting,2024.2.4,116.73918232083851,2024-11-30 15h19.59.118220 +0530,
49,60,89,91,0,13,t,0.16169212500062713,None,13,0,91,4,107.49430412500078,,107.48421970799973,107.49430412500078,108.48152358300104,108.48152358300104,108.49492141600058,108.65001404100076,t,0.16169212500062713,None,3,001,2024-11-30_15h19.42.202,Delay Discounting,2024.2.4,116.73918232083851,2024-11-30 15h19.59.118220 +0530,
27,50,21,92,1,13,l,0.07525866700052575,None,13,1,92,2,108.66223333299968,,108.65448812500108,108.66223333299968,109.64908775000004,109.64908775000004,109.66168370800006,109.72698529099944,l,0.07525866700052575,None,3,001,2024-11-30_15h19.42.202,Delay Discounting,2024.2.4,116.73918232083851,2024-11-30 15h19.59.118220 +0530,
67,76,119,93,2,13,l,0.11819504200138908,None,13,2,93,5,109.73884829100098,,109.73108229100035,109.73884829100098,110.72782829100106,110.72782829100106,110.741427166,110.85145787500005,l,0.11819504200138908,None,3,001,2024-11-30_15h19.42.202,Delay Discounting,2024.2.4,116.73918232083851,2024-11-30 15h19.59.118220 +0530,
15,35,13,94,3,13,l,0.03159283300010429,None,13,3,94,1,110.86542154100061,,110.8570623329997,110.86542154100061,111.84762025000055,111.84762025000055,111.8657161659994,111.88301049999973,l,0.03159283300010429,None,3,001,2024-11-30_15h19.42.202,Delay Discounting,2024.2.4,116.73918232083851,2024-11-30 15h19.59.118220 +0530,
78,80,162,95,4,13,t,0.09124204100044153,None,13,4,95,6,111.89542712500042,,111.8873439580002,111.89542712500042,112.87353829099993,112.87353829099993,112.89016312500098,112.97500708299958,t,0.09124204100044153,None,3,001,2024-11-30_15h19.42.202,Delay Discounting,2024.2.4,116.73918232083851,2024-11-30 15h19.59.118220 +0530,
11,30,7,96,5,13,t,0.08758654099983687,None,13,5,96,0,112.98811029100034,,112.98042420800084,112.98811029100034,113.9641240410001,113.9641240410001,113.9814492910009,114.05838741600019,t,0.08758654099983687,None,3,001,2024-11-30_15h19.42.202,Delay Discounting,2024.2.4,116.73918232083851,2024-11-30 15h19.59.118220 +0530,
40,55,62,97,6,13,t,3.6667304580005293,None,13,6,97,3,114.06946125000104,,114.06203441599973,114.06946125000104,115.05766100000073,115.05766100000073,115.0664757909999,118.72828350000054,t,3.6667304580005293,None,3,001,2024-11-30_15h19.42.202,Delay Discounting,2024.2.4,116.73918232083851,2024-11-30 15h19.59.118220 +0530,
67,76,119,98,0,14,t,0.06807850000041071,None,14,0,98,5,118.7458950830005,,118.73413537499982,118.7458950830005,119.72362154099937,119.72362154099937,119.74164324999947,119.79397637500006,t,0.06807850000041071,None,3,001,2024-11-30_15h19.42.202,Delay Discounting,2024.2.4,116.73918232083851,2024-11-30 15h19.59.118220 +0530,
27,50,21,99,1,14,t,0.07973287499953585,None,14,1,99,2,119.80708075000075,,119.79837262500041,119.80708075000075,120.79446749999988,120.79446749999988,120.80790754100053,120.8766712910001,t,0.07973287499953585,None,3,001,2024-11-30_15h19.42.202,Delay Discounting,2024.2.4,116.73918232083851,2024-11-30 15h19.59.118220 +0530,
15,35,13,100,2,14,t,0.09108862500033865,None,14,2,100,1,120.88902754099945,,120.88101487499989,120.88902754099945,121.8783151660009,121.8783151660009,121.89162937500078,121.97645137499967,t,0.09108862500033865,None,3,001,2024-11-30_15h19.42.202,Delay Discounting,2024.2.4,116.73918232083851,2024-11-30 15h19.59.118220 +0530,
40,55,62,101,3,14,t,0.13215883300108544,None,14,3,101,3,121.98919829099941,,121.98144024999965,121.98919829099941,122.97454420800022,122.97454420800022,122.9815654160011,123.10956041600002,t,0.13215883300108544,None,3,001,2024-11-30_15h19.42.202,Delay Discounting,2024.2.4,116.73918232083851,2024-11-30 15h19.59.118220 +0530,
78,80,162,102,4,14,t,0.045607875001223874,None,14,4,102,6,123.12159637500008,,123.11425025000062,123.12159637500008,124.10827037499985,124.10827037499985,124.12480916599998,124.16035737499988,t,0.045607875001223874,None,3,001,2024-11-30_15h19.42.202,Delay Discounting,2024.2.4,116.73918232083851,2024-11-30 15h19.59.118220 +0530,
49,60,89,103,5,14,t,0.06827091599916457,None,14,5,103,4,124.17436741600068,,124.16530741600036,124.17436741600068,125.16074850000041,125.16074850000041,125.17450770799951,125.23038041600012,t,0.06827091599916457,None,3,001,2024-11-30_15h19.42.202,Delay Discounting,2024.2.4,116.73918232083851,2024-11-30 15h19.59.118220 +0530,
11,30,7,104,6,14,t,0.008238166999944951,None,14,6,104,0,125.24405250000018,,125.23471199999949,125.24405250000018,126.22586737500023,126.22586737500023,126.38030791600067,126.24391529100103,t,0.008238166999944951,None,3,001,2024-11-30_15h19.42.202,Delay Discounting,2024.2.4,116.73918232083851,2024-11-30 15h19.59.118220 +0530,
