Study_word,thisN,thisTrialN,thisRepN,Studyslider.response,Studyslider.rt,test_word,Reference,old_new,test_textbox.text,testmouse.x,testmouse.y,testmouse.leftButton,testmouse.midButton,testmouse.rightButton,testmouse.time,testmouse.clicked_name,trials.thisRepN,trials.thisTrialN,trials.thisN,trials.thisIndex,trials_2.thisRepN,trials_2.thisTrialN,trials_2.thisN,trials_2.thisIndex,thisRow.t,notes,trial.started,StudyText.started,Studyslider.started,trial.stopped,trials.Studyslider.response,trials.Studyslider.rt,test.started,TestText.started,test_textbox.started,submit_text.started,testmouse.started,test.stopped,trials_2.test_textbox.text,trials_2.testmouse.x,trials_2.testmouse.y,trials_2.testmouse.leftButton,trials_2.testmouse.midButton,trials_2.testmouse.rightButton,trials_2.testmouse.time,trials_2.testmouse.clicked_name,participant,session,date,expName,psychopyVersion,frameRate,expStart,
mouse,0,0,0,2.0107913669064748,2.0678609590031556,,,,,,,,,,,,0,0,0,8,,,,,0.04032870800438104,,0.019042917003389448,0.04032870800438104,0.04032870800438104,2.096185250004055,2.0107913669064748,2.0678609590031556,,,,,,,,,,,,,,,2,001,2024-11-06_10h25.33.110,primming 5.0,2024.2.4,119.68212523015494,2024-11-06 10h25.41.383072 +0530,
Police,1,1,0,2.0107913669064748,0.7475920840006438,,,,,,,,,,,,0,1,1,12,,,,,2.107159541999863,,2.098709083002177,2.107159541999863,2.107159541999863,2.855121083004633,2.0107913669064748,0.7475920840006438,,,,,,,,,,,,,,,2,001,2024-11-06_10h25.33.110,primming 5.0,2024.2.4,119.68212523015494,2024-11-06 10h25.41.383072 +0530,
Laptop,2,2,0,2.0107913669064748,0.9175422909975168,,,,,,,,,,,,0,2,2,5,,,,,2.868118124999455,,2.858172874999582,2.868118124999455,2.868118124999455,3.7840420420034206,2.0107913669064748,0.9175422909975168,,,,,,,,,,,,,,,2,001,2024-11-06_10h25.33.110,primming 5.0,2024.2.4,119.68212523015494,2024-11-06 10h25.41.383072 +0530,
cushion,3,3,0,2.0107913669064748,0.8393267919964273,,,,,,,,,,,,0,3,3,1,,,,,3.7929784170046332,,3.7859661250040517,3.7929784170046332,3.7929784170046332,4.633971667004516,2.0107913669064748,0.8393267919964273,,,,,,,,,,,,,,,2,001,2024-11-06_10h25.33.110,primming 5.0,2024.2.4,119.68212523015494,2024-11-06 10h25.41.383072 +0530,
Pastry,4,4,0,2.0107913669064748,0.7231390000015381,,,,,,,,,,,,0,4,4,9,,,,,4.642856708000181,,4.63584775000345,4.642856708000181,4.642856708000181,5.367335499999172,2.0107913669064748,0.7231390000015381,,,,,,,,,,,,,,,2,001,2024-11-06_10h25.33.110,primming 5.0,2024.2.4,119.68212523015494,2024-11-06 10h25.41.383072 +0530,
Cruise,5,5,0,2.0107913669064748,0.44062920800206484,,,,,,,,,,,,0,5,5,11,,,,,5.375513458006026,,5.368504292004218,5.375513458006026,5.375513458006026,5.817433000003803,2.0107913669064748,0.44062920800206484,,,,,,,,,,,,,,,2,001,2024-11-06_10h25.33.110,primming 5.0,2024.2.4,119.68212523015494,2024-11-06 10h25.41.383072 +0530,
Keys,6,6,0,2.0107913669064748,0.17282366600556998,,,,,,,,,,,,0,6,6,13,,,,,5.826041708001867,,5.8190597080028965,5.826041708001867,5.826041708001867,6.0014360420027515,2.0107913669064748,0.17282366600556998,,,,,,,,,,,,,,,2,001,2024-11-06_10h25.33.110,primming 5.0,2024.2.4,119.68212523015494,2024-11-06 10h25.41.383072 +0530,
phone,7,7,0,2.0107913669064748,0.7395448340030271,,,,,,,,,,,,0,7,7,2,,,,,6.009498542000074,,6.002515708001738,6.009498542000074,6.009498542000074,6.751067042001523,2.0107913669064748,0.7395448340030271,,,,,,,,,,,,,,,2,001,2024-11-06_10h25.33.110,primming 5.0,2024.2.4,119.68212523015494,2024-11-06 10h25.41.383072 +0530,
marble,8,8,0,2.0107913669064748,0.2894305420049932,,,,,,,,,,,,0,8,8,3,,,,,6.759234708006261,,6.752183542004786,6.759234708006261,6.759234708006261,7.0511675420057145,2.0107913669064748,0.2894305420049932,,,,,,,,,,,,,,,2,001,2024-11-06_10h25.33.110,primming 5.0,2024.2.4,119.68212523015494,2024-11-06 10h25.41.383072 +0530,
Poster,9,9,0,2.0107913669064748,0.3895559160009725,,,,,,,,,,,,0,9,9,14,,,,,7.059258291999868,,7.0522731250021025,7.059258291999868,7.059258291999868,7.4512866670047515,2.0107913669064748,0.3895559160009725,,,,,,,,,,,,,,,2,001,2024-11-06_10h25.33.110,primming 5.0,2024.2.4,119.68212523015494,2024-11-06 10h25.41.383072 +0530,
T-shirt,10,10,0,2.0107913669064748,0.40564774999802466,,,,,,,,,,,,0,10,10,7,,,,,7.46034020800289,,7.453130042005796,7.46034020800289,7.46034020800289,7.867308375003631,2.0107913669064748,0.40564774999802466,,,,,,,,,,,,,,,2,001,2024-11-06_10h25.33.110,primming 5.0,2024.2.4,119.68212523015494,2024-11-06 10h25.41.383072 +0530,
Case,11,11,0,2.0107913669064748,0.4001497079952969,,,,,,,,,,,,0,11,11,10,,,,,7.875479542002722,,7.868383792003442,7.875479542002722,7.875479542002722,8.284323457999562,2.0107913669064748,0.4001497079952969,,,,,,,,,,,,,,,2,001,2024-11-06_10h25.33.110,primming 5.0,2024.2.4,119.68212523015494,2024-11-06 10h25.41.383072 +0530,
Chart,12,12,0,2.0107913669064748,0.23367279100057203,,,,,,,,,,,,0,12,12,6,,,,,8.293527042005735,,8.285668542004714,8.293527042005735,8.293527042005735,8.527917917002924,2.0107913669064748,0.23367279100057203,,,,,,,,,,,,,,,2,001,2024-11-06_10h25.33.110,primming 5.0,2024.2.4,119.68212523015494,2024-11-06 10h25.41.383072 +0530,
book,13,13,0,2.0107913669064748,0.14040462500270223,,,,,,,,,,,,0,13,13,0,,,,,8.538276833001873,,8.529580792004708,8.538276833001873,8.538276833001873,8.679176958001335,2.0107913669064748,0.14040462500270223,,,,,,,,,,,,,,,2,001,2024-11-06_10h25.33.110,primming 5.0,2024.2.4,119.68212523015494,2024-11-06 10h25.41.383072 +0530,
board,14,14,0,2.0107913669064748,0.1472344579960918,,,,,,,,,,,,0,14,14,4,,,,,8.690064750000602,,8.681354625005042,8.690064750000602,8.690064750000602,8.838378500004183,2.0107913669064748,0.1472344579960918,,,,,,,,,,,,,,,2,001,2024-11-06_10h25.33.110,primming 5.0,2024.2.4,119.68212523015494,2024-11-06 10h25.41.383072 +0530,
,0,0,0,,,_ha_t,Chart,old,chart,"[-0.24730215827338128, -0.24730215827338128, 0.0008992805755395684]","[-0.3066546762589928, -0.3066546762589928, -0.28597122302158273]","[1, 1, 1]","[0, 0, 0]","[0, 0, 0]","[0.03740599999582628, 0.21894254200014984, 2.981728041995666]","[None, None, 'submit_text']",,,,,0,0,0,1,8.882334250003623,,,,,,,,8.872423708002316,8.882334250003623,8.882334250003623,8.882334250003623,0.03404170800058637,11.854455500004406,chart,"[-0.24730215827338128, -0.24730215827338128, 0.0008992805755395684]","[-0.3066546762589928, -0.3066546762589928, -0.28597122302158273]","[1, 1, 1]","[0, 0, 0]","[0, 0, 0]","[0.03740599999582628, 0.21894254200014984, 2.981728041995666]","[None, None, 'submit_text']",2,001,2024-11-06_10h25.33.110,primming 5.0,2024.2.4,119.68212523015494,2024-11-06 10h25.41.383072 +0530,
,1,1,0,,,T_hi_t,Tshirt,old,tshirt,[0.0008992805755395684],[-0.28597122302158273],[1],[0],[0],[2.572813958999177],['submit_text'],,,,,0,1,1,2,11.867863250001392,,,,,,,,11.856624958003522,11.867863250001392,11.867863250001392,11.867863250001392,0.001976084000489209,14.429727624999941,tshirt,[0.0008992805755395684],[-0.28597122302158273],[1],[0],[0],[2.572813958999177],['submit_text'],2,001,2024-11-06_10h25.33.110,primming 5.0,2024.2.4,119.68212523015494,2024-11-06 10h25.41.383072 +0530,
,2,2,0,,,_o_rd,Board ,old,board,[0.01079136690647482],[-0.3012589928057554],[1],[0],[0],[5.79744283400214],['submit_text'],,,,,0,2,2,10,14.442439417005517,,,,,,,,14.4318701670054,14.442439417005517,14.442439417005517,14.442439417005517,0.0020485829954850487,20.229633875002037,board,[0.01079136690647482],[-0.3012589928057554],[1],[0],[0],[5.79744283400214],['submit_text'],2,001,2024-11-06_10h25.33.110,primming 5.0,2024.2.4,119.68212523015494,2024-11-06 10h25.41.383072 +0530,
,3,3,0,,,_ou_se,mouse,old,mouse,[0.01079136690647482],[-0.3012589928057554],[1],[0],[0],[2.238342125005147],['submit_text'],,,,,0,3,3,3,20.243082708002476,,,,,,,,20.23188654200203,20.243082708002476,20.243082708002476,20.243082708002476,0.0021409590044640936,22.470553375002055,mouse,[0.01079136690647482],[-0.3012589928057554],[1],[0],[0],[2.238342125005147],['submit_text'],2,001,2024-11-06_10h25.33.110,primming 5.0,2024.2.4,119.68212523015494,2024-11-06 10h25.41.383072 +0530,
,4,4,0,,,_ru_is_,Cruise,old,cruise,[0.01079136690647482],[-0.3012589928057554],[1],[0],[0],[2.7993977080041077],['submit_text'],,,,,0,4,4,6,22.4836521670004,,,,,,,,22.472621500004607,22.4836521670004,22.4836521670004,22.4836521670004,0.0019568749994505197,25.272412375001295,cruise,[0.01079136690647482],[-0.3012589928057554],[1],[0],[0],[2.7993977080041077],['submit_text'],2,001,2024-11-06_10h25.33.110,primming 5.0,2024.2.4,119.68212523015494,2024-11-06 10h25.41.383072 +0530,
,5,5,0,,,bo_t_e,Bottle,new,bottle,[0.01079136690647482],[-0.3012589928057554],[1],[0],[0],[2.39464808399498],['submit_text'],,,,,0,5,5,18,25.286337500001537,,,,,,,,25.274580625002272,25.286337500001537,25.286337500001537,25.286337500001537,0.0020427089984877966,27.669590666999284,bottle,[0.01079136690647482],[-0.3012589928057554],[1],[0],[0],[2.39464808399498],['submit_text'],2,001,2024-11-06_10h25.33.110,primming 5.0,2024.2.4,119.68212523015494,2024-11-06 10h25.41.383072 +0530,
,6,6,0,,,p_nc_l,Pencil,new,pencil,"[-0.0044964028776978415, -0.0044964028776978415]","[-0.2670863309352518, -0.3039568345323741]","[1, 1]","[0, 0]","[0, 0]","[2.7974918330000946, 3.4472890830002143]","[None, 'submit_text']",,,,,0,6,6,16,27.684277750006004,,,,,,,,27.67187591700349,27.684277750006004,27.684277750006004,27.684277750006004,0.002161541997338645,31.119571208000707,pencil,"[-0.0044964028776978415, -0.0044964028776978415]","[-0.2670863309352518, -0.3039568345323741]","[1, 1]","[0, 0]","[0, 0]","[2.7974918330000946, 3.4472890830002143]","[None, 'submit_text']",2,001,2024-11-06_10h25.33.110,primming 5.0,2024.2.4,119.68212523015494,2024-11-06 10h25.41.383072 +0530,
,7,7,0,,,_ho_e,Phone,old,,[-0.0044964028776978415],[-0.30485611510791366],[1],[0],[0],[1.4824260419991333],['submit_text'],,,,,0,7,7,12,31.134210625001288,,,,,,,,31.12190187500528,31.134210625001288,31.134210625001288,31.134210625001288,0.0021740000011050142,32.60463304199948,,[-0.0044964028776978415],[-0.30485611510791366],[1],[0],[0],[1.4824260419991333],['submit_text'],2,001,2024-11-06_10h25.33.110,primming 5.0,2024.2.4,119.68212523015494,2024-11-06 10h25.41.383072 +0530,
,8,8,0,,,v_s_,Vase,new,vase,[0.0008992805755395684],[-0.3192446043165468],[1],[0],[0],[2.4062617090021376],['submit_text'],,,,,0,8,8,17,32.61740237500635,,,,,,,,32.606783708004514,32.61740237500635,32.61740237500635,32.61740237500635,0.002061750004941132,35.01336291700136,vase,[0.0008992805755395684],[-0.3192446043165468],[1],[0],[0],[2.4062617090021376],['submit_text'],2,001,2024-11-06_10h25.33.110,primming 5.0,2024.2.4,119.68212523015494,2024-11-06 10h25.41.383072 +0530,
,9,9,0,,,_a_bl_,Marble,old,marble,[0.0008992805755395684],[-0.3192446043165468],[1],[0],[0],[2.4731132090018946],['submit_text'],,,,,0,9,9,11,35.027552667001146,,,,,,,,35.01553100000456,35.027552667001146,35.027552667001146,35.027552667001146,0.0020570000051520765,37.489044624999224,marble,[0.0008992805755395684],[-0.3192446043165468],[1],[0],[0],[2.4731132090018946],['submit_text'],2,001,2024-11-06_10h25.33.110,primming 5.0,2024.2.4,119.68212523015494,2024-11-06 10h25.41.383072 +0530,
,10,10,0,,,_oo_,Book,old,book,[0.0008992805755395684],[-0.3192446043165468],[1],[0],[0],[2.3783833330016932],['submit_text'],,,,,0,10,10,13,37.50315279200004,,,,,,,,37.49111379200622,37.50315279200004,37.50315279200004,37.50315279200004,0.0019516250031301752,39.86996012500458,book,[0.0008992805755395684],[-0.3192446043165468],[1],[0],[0],[2.3783833330016932],['submit_text'],2,001,2024-11-06_10h25.33.110,primming 5.0,2024.2.4,119.68212523015494,2024-11-06 10h25.41.383072 +0530,
,11,11,0,,,l_pt_p,Laptop,old,laptop,[0.0008992805755395684],[-0.3192446043165468],[1],[0],[0],[3.3797245409950847],['submit_text'],,,,,0,11,11,0,39.88532425000449,,,,,,,,39.872617458000605,39.88532425000449,39.88532425000449,39.88532425000449,0.0025055829974007793,43.252761208001175,laptop,[0.0008992805755395684],[-0.3192446043165468],[1],[0],[0],[3.3797245409950847],['submit_text'],2,001,2024-11-06_10h25.33.110,primming 5.0,2024.2.4,119.68212523015494,2024-11-06 10h25.41.383072 +0530,
,12,12,0,,,c_s_e,Case,old,case,[0.006294964028776978],[-0.29856115107913667],[1],[0],[0],[2.3476465420026216],['submit_text'],,,,,0,12,12,5,43.26740704200347,,,,,,,,43.2549293330012,43.26740704200347,43.26740704200347,43.26740704200347,0.0020441250017029233,45.60301025000081,case,[0.006294964028776978],[-0.29856115107913667],[1],[0],[0],[2.3476465420026216],['submit_text'],2,001,2024-11-06_10h25.33.110,primming 5.0,2024.2.4,119.68212523015494,2024-11-06 10h25.41.383072 +0530,
,13,13,0,,,ta_l_,Table ,new,table,[0.006294964028776978],[-0.29856115107913667],[1],[0],[0],[2.8205580840003677],['submit_text'],,,,,0,13,13,15,45.61737720800011,,,,,,,,45.60533333300555,45.61737720800011,45.61737720800011,45.61737720800011,0.0021988330045132898,48.42625087500346,table,[0.006294964028776978],[-0.29856115107913667],[1],[0],[0],[2.8205580840003677],['submit_text'],2,001,2024-11-06_10h25.33.110,primming 5.0,2024.2.4,119.68212523015494,2024-11-06 10h25.41.383072 +0530,
,14,14,0,,,K_y_,Keys,old,keys,[0.006294964028776978],[-0.29856115107913667],[1],[0],[0],[1.7507056670001475],['submit_text'],,,,,0,14,14,8,48.438520708004944,,,,,,,,48.428064875006385,48.438520708004944,48.438520708004944,48.438520708004944,0.0017197919951286167,50.17912554200302,keys,[0.006294964028776978],[-0.29856115107913667],[1],[0],[0],[1.7507056670001475],['submit_text'],2,001,2024-11-06_10h25.33.110,primming 5.0,2024.2.4,119.68212523015494,2024-11-06 10h25.41.383072 +0530,
,15,15,0,,,P_li_e,Police,old,police,[0.006294964028776978],[-0.29856115107913667],[1],[0],[0],[1.98117679200368],['submit_text'],,,,,0,15,15,7,50.19208170800266,,,,,,,,50.18121333300223,50.19208170800266,50.19208170800266,50.19208170800266,0.0019901250052498654,52.16274700000213,police,[0.006294964028776978],[-0.29856115107913667],[1],[0],[0],[1.98117679200368],['submit_text'],2,001,2024-11-06_10h25.33.110,primming 5.0,2024.2.4,119.68212523015494,2024-11-06 10h25.41.383072 +0530,
,16,16,0,,,P_as_tr_,Pastry,old,pastre,[0.006294964028776978],[-0.29856115107913667],[1],[0],[0],[4.596615208000003],['submit_text'],,,,,0,16,16,4,52.17640545800532,,,,,,,,52.16530162500567,52.17640545800532,52.17640545800532,52.17640545800532,0.0024393749990849756,56.76226179200603,pastre,[0.006294964028776978],[-0.29856115107913667],[1],[0],[0],[4.596615208000003],['submit_text'],2,001,2024-11-06_10h25.33.110,primming 5.0,2024.2.4,119.68212523015494,2024-11-06 10h25.41.383072 +0530,
,17,17,0,,,c_s_io_,Cushion,old,cushion,[0.006294964028776978],[-0.29856115107913667],[1],[0],[0],[2.7979708339989884],['submit_text'],,,,,0,17,17,14,56.77504020800552,,,,,,,,56.76434025000344,56.77504020800552,56.77504020800552,56.77504020800552,0.001967834003153257,59.56275291700149,cushion,[0.006294964028776978],[-0.29856115107913667],[1],[0],[0],[2.7979708339989884],['submit_text'],2,001,2024-11-06_10h25.33.110,primming 5.0,2024.2.4,119.68212523015494,2024-11-06 10h25.41.383072 +0530,
,18,18,0,,,c_m_ra,Camera,new,camera,[0.006294964028776978],[-0.29856115107913667],[1],[0],[0],[2.880066083998827],['submit_text'],,,,,0,18,18,19,59.57622508300119,,,,,,,,59.56513837500097,59.57622508300119,59.57622508300119,59.57622508300119,0.0022674160063616,62.44559758300602,camera,[0.006294964028776978],[-0.29856115107913667],[1],[0],[0],[2.880066083998827],['submit_text'],2,001,2024-11-06_10h25.33.110,primming 5.0,2024.2.4,119.68212523015494,2024-11-06 10h25.41.383072 +0530,
,19,19,0,,,P_st_r,Poster,old,poster,[0.006294964028776978],[-0.29856115107913667],[1],[0],[0],[2.4812991250000778],['submit_text'],,,,,0,19,19,9,62.45785095800238,,,,,,,,62.4475470000034,62.45785095800238,62.45785095800238,62.45785095800238,0.0018582080010673963,64.9292430830028,poster,[0.006294964028776978],[-0.29856115107913667],[1],[0],[0],[2.4812991250000778],['submit_text'],2,001,2024-11-06_10h25.33.110,primming 5.0,2024.2.4,119.68212523015494,2024-11-06 10h25.41.383072 +0530,
