pos,corr_resp,thisN,thisTrialN,thisRepN,key_resp.keys,key_resp.corr,key_resp.rt,key_resp.duration,trials.thisRepN,trials.thisTrialN,trials.thisN,trials.thisIndex,trials_2.thisRepN,trials_2.thisTrialN,trials_2.thisN,trials_2.thisIndex,thisRow.t,notes,trial.started,Fixation.started,line_1.started,line_2.started,line_3.started,line_4.started,Fixation.stopped,probe.started,key_resp.started,trial.stopped,trials.key_resp.keys,trials.key_resp.corr,trials.key_resp.rt,trials.key_resp.duration,trials_2.key_resp.keys,trials_2.key_resp.corr,trials_2.key_resp.rt,trials_2.key_resp.duration,participant,session,date,expName,psychopyVersion,frameRate,expStart,
-50,x,0,0,0,x,1,1.0433775000274181,None,0,0,0,0,,,,,0.02915654197568074,,0.021530041994992644,0.02915654197568074,1.0385133329837117,1.0385133329837117,1.0385133329837117,1.0385133329837117,1.0445979169744533,1.9948381249851082,1.9948381249851082,3.0693171249877196,x,1,1.0433775000274181,None,,,,,1,001,2024-11-18_22h11.11.707,Motor Sequence Learning,2024.2.4,None,2024-11-18 22h11.20.128953 +0530,
150,v,1,1,0,v,1,0.4547888340021018,None,0,1,1,1,,,,,3.0770357500005048,,3.0697447499842383,3.0770357500005048,4.070611249975627,4.070611249975627,4.070611249975627,4.070611249975627,4.070611249975627,5.062627041974338,5.062627041974338,5.519583082990721,v,1,0.4547888340021018,None,,,,,1,001,2024-11-18_22h11.11.707,Motor Sequence Learning,2024.2.4,None,2024-11-18 22h11.20.128953 +0530,
50,c,2,2,0,c,1,0.5484453329991084,None,0,2,2,2,,,,,5.52783179198741,,5.519996207993245,5.52783179198741,6.5155326669919305,6.5155326669919305,6.5155326669919305,6.5155326669919305,6.529767999978503,7.520589124993421,7.520589124993421,8.071272457978921,c,1,0.5484453329991084,None,,,,,1,001,2024-11-18_22h11.11.707,Motor Sequence Learning,2024.2.4,None,2024-11-18 22h11.20.128953 +0530,
-150,z,3,3,0,z,1,0.333156415988924,None,0,3,3,3,,,,,8.081897332973313,,8.07161487499252,8.081897332973313,9.079374124994501,9.079374124994501,9.079374124994501,9.079374124994501,9.096488374983892,10.07059049999225,10.07059049999225,10.41340499999933,z,1,0.333156415988924,None,,,,,1,001,2024-11-18_22h11.11.707,Motor Sequence Learning,2024.2.4,None,2024-11-18 22h11.20.128953 +0530,
-50,x,4,0,1,x,1,0.2983709169784561,None,1,0,4,0,,,,,10.422367999999551,,10.41373512498103,10.422367999999551,11.411274166981457,11.411274166981457,11.411274166981457,11.411274166981457,11.417911457974697,12.403978874994209,12.403978874994209,12.71501737498329,x,1,0.2983709169784561,None,,,,,1,001,2024-11-18_22h11.11.707,Motor Sequence Learning,2024.2.4,None,2024-11-18 22h11.20.128953 +0530,
150,v,5,1,1,v,1,0.30132829200010747,None,1,1,5,1,,,,,12.726417624973692,,12.715667457989184,12.726417624973692,13.713727166992612,13.713727166992612,13.713727166992612,13.713727166992612,13.720559457986383,14.712326416978613,14.712326416978613,15.021412207977846,v,1,0.30132829200010747,None,,,,,1,001,2024-11-18_22h11.11.707,Motor Sequence Learning,2024.2.4,None,2024-11-18 22h11.20.128953 +0530,
50,c,6,2,1,c,1,0.32655016699573025,None,1,2,6,2,,,,,15.032231041986961,,15.022023541998351,15.032231041986961,16.029268499987666,16.029268499987666,16.029268499987666,16.029268499987666,16.045995499996934,17.020291207998525,17.020291207998525,17.349019916990073,c,1,0.32655016699573025,None,,,,,1,001,2024-11-18_22h11.11.707,Motor Sequence Learning,2024.2.4,None,2024-11-18 22h11.20.128953 +0530,
-150,z,7,3,1,z,1,0.9896894170087762,None,1,3,7,3,,,,,17.358732124994276,,17.349623582995264,17.358732124994276,18.348204832989722,18.348204832989722,18.348204832989722,18.348204832989722,18.355901666975114,19.345644707995234,19.345644707995234,20.3483771669853,z,1,0.9896894170087762,None,,,,,1,001,2024-11-18_22h11.11.707,Motor Sequence Learning,2024.2.4,None,2024-11-18 22h11.20.128953 +0530,
-50,x,8,0,2,x,1,0.3496115000161808,None,2,0,8,0,,,,,20.362863624992315,,20.349082707980415,20.362863624992315,21.345742374978727,21.345742374978727,21.345742374978727,21.345742374978727,21.352784374990733,22.346311666973634,22.346311666973634,22.698253832990304,x,1,0.3496115000161808,None,,,,,1,001,2024-11-18_22h11.11.707,Motor Sequence Learning,2024.2.4,None,2024-11-18 22h11.20.128953 +0530,
150,v,9,1,2,v,1,0.2662584999925457,None,2,1,9,1,,,,,22.707833624997875,,22.698657542001456,22.707833624997875,23.696192457980942,23.696192457980942,23.696192457980942,23.696192457980942,23.703224582975963,24.694487166998442,24.694487166998442,24.96435324999038,v,1,0.2662584999925457,None,,,,,1,001,2024-11-18_22h11.11.707,Motor Sequence Learning,2024.2.4,None,2024-11-18 22h11.20.128953 +0530,
50,c,10,2,2,c,1,0.24332541701733135,None,2,2,10,2,,,,,24.973234666977078,,24.96468162498786,24.973234666977078,25.95740499999374,25.95740499999374,25.95740499999374,25.95740499999374,25.96446583297802,26.962952874979237,26.962952874979237,27.214074291987345,c,1,0.24332541701733135,None,,,,,1,001,2024-11-18_22h11.11.707,Motor Sequence Learning,2024.2.4,None,2024-11-18 22h11.20.128953 +0530,
-150,z,11,3,2,z,1,0.26862429099855945,None,2,3,11,3,,,,,27.222842749994015,,27.214389582979493,27.222842749994015,28.206355249974877,28.206355249974877,28.206355249974877,28.206355249974877,28.213394124992192,29.21296337500098,29.21296337500098,29.48634837497957,z,1,0.26862429099855945,None,,,,,1,001,2024-11-18_22h11.11.707,Motor Sequence Learning,2024.2.4,None,2024-11-18 22h11.20.128953 +0530,
-50,x,12,0,3,x,1,None,None,3,0,12,0,,,,,29.49721445798059,,29.486737792001804,29.49721445798059,30.48218041699147,30.48218041699147,30.48218041699147,30.48218041699147,30.48867137497291,31.478392541990615,31.478392541990615,31.836319707974326,x,1,None,None,,,,,1,001,2024-11-18_22h11.11.707,Motor Sequence Learning,2024.2.4,None,2024-11-18 22h11.20.128953 +0530,
150,v,13,1,3,v,1,0.2295218330109492,None,3,1,13,1,,,,,31.844591707980726,,31.83667587497621,31.844591707980726,32.829097707988694,32.829097707988694,32.829097707988694,32.829097707988694,32.83595087498543,33.827723624999635,33.827723624999635,34.06393762497464,v,1,0.2295218330109492,None,,,,,1,001,2024-11-18_22h11.11.707,Motor Sequence Learning,2024.2.4,None,2024-11-18 22h11.20.128953 +0530,
50,c,14,2,3,c,1,0.2597689160029404,None,3,2,14,2,,,,,34.07382370799314,,34.06426429198473,34.07382370799314,35.064017791999504,35.064017791999504,35.064017791999504,35.064017791999504,35.07098020799458,36.061758457974065,36.061758457974065,36.332230332976906,c,1,0.2597689160029404,None,,,,,1,001,2024-11-18_22h11.11.707,Motor Sequence Learning,2024.2.4,None,2024-11-18 22h11.20.128953 +0530,
-150,z,15,3,3,z,1,0.28267770798993297,None,3,3,15,3,,,,,36.34301616699668,,36.332726291992,36.34301616699668,37.333982916985406,37.333982916985406,37.333982916985406,37.333982916985406,37.34630208299495,38.32931474997895,38.32931474997895,38.61495683298563,z,1,0.28267770798993297,None,,,,,1,001,2024-11-18_22h11.11.707,Motor Sequence Learning,2024.2.4,None,2024-11-18 22h11.20.128953 +0530,
-50,x,16,0,4,x,1,0.2558548749948386,None,4,0,16,0,,,,,38.62473341697478,,38.61536408300162,38.62473341697478,39.616422416991554,39.616422416991554,39.616422416991554,39.616422416991554,39.62961862498196,40.612786916986806,40.612786916986806,40.87208516697865,x,1,0.2558548749948386,None,,,,,1,001,2024-11-18_22h11.11.707,Motor Sequence Learning,2024.2.4,None,2024-11-18 22h11.20.128953 +0530,
150,v,17,1,4,v,1,0.32625158299924806,None,4,1,17,1,,,,,40.88317074999213,,40.87274191697361,40.88317074999213,41.87078954197932,41.87078954197932,41.87078954197932,41.87078954197932,41.87770041698241,42.870199624972884,42.870199624972884,43.19913850000012,v,1,0.32625158299924806,None,,,,,1,001,2024-11-18_22h11.11.707,Motor Sequence Learning,2024.2.4,None,2024-11-18 22h11.20.128953 +0530,
50,c,18,2,4,c,1,0.27328662501531653,None,4,2,18,2,,,,,43.20836866699392,,43.199685624975245,43.20836866699392,44.21239566698205,44.21239566698205,44.21239566698205,44.21239566698205,44.22911854198901,45.19500362497638,45.19500362497638,45.47167495798203,c,1,0.27328662501531653,None,,,,,1,001,2024-11-18_22h11.11.707,Motor Sequence Learning,2024.2.4,None,2024-11-18 22h11.20.128953 +0530,
-150,z,19,3,4,z,1,0.36069895801483653,None,4,3,19,3,,,,,45.48193516698666,,45.47206862497842,45.48193516698666,46.46522116698907,46.46522116698907,46.46522116698907,46.46522116698907,46.47951329199714,47.47068341699196,47.47068341699196,47.838736124977004,z,1,0.36069895801483653,None,,,,,1,001,2024-11-18_22h11.11.707,Motor Sequence Learning,2024.2.4,None,2024-11-18 22h11.20.128953 +0530,
-50,x,20,0,5,x,1,0.6718440419936087,None,5,0,20,0,,,,,47.862580499990145,,47.83907541699591,47.862580499990145,48.83716766699217,48.83716766699217,48.83716766699217,48.83716766699217,48.85333158299909,49.83682870797929,49.83682870797929,50.51516087498749,x,1,0.6718440419936087,None,,,,,1,001,2024-11-18_22h11.11.707,Motor Sequence Learning,2024.2.4,None,2024-11-18 22h11.20.128953 +0530,
150,v,21,1,5,v,1,0.2962806669820566,None,5,1,21,1,,,,,50.525917249993654,,50.515796791994944,50.525917249993654,51.5137238749885,51.5137238749885,51.5137238749885,51.5137238749885,51.52028320799582,52.51214700000128,52.51214700000128,52.81321591697633,v,1,0.2962806669820566,None,,,,,1,001,2024-11-18_22h11.11.707,Motor Sequence Learning,2024.2.4,None,2024-11-18 22h11.20.128953 +0530,
50,c,22,2,5,c,1,0.30431770798168145,None,5,2,22,2,,,,,52.82216833299026,,52.81356720798067,52.82216833299026,53.80679770797724,53.80679770797724,53.80679770797724,53.80679770797724,53.82891162499436,54.80274208297487,54.80274208297487,55.114602166984696,c,1,0.30431770798168145,None,,,,,1,001,2024-11-18_22h11.11.707,Motor Sequence Learning,2024.2.4,None,2024-11-18 22h11.20.128953 +0530,
-150,z,23,3,5,z,1,0.28392291598720476,None,5,3,23,3,,,,,55.1293348329782,,55.11503470799653,55.1293348329782,56.11195279198,56.11195279198,56.11195279198,56.11195279198,56.11874079197878,57.11222604199429,57.11222604199429,57.40306845799205,z,1,0.28392291598720476,None,,,,,1,001,2024-11-18_22h11.11.707,Motor Sequence Learning,2024.2.4,None,2024-11-18 22h11.20.128953 +0530,
-50,x,24,0,6,x,1,0.3263702089898288,None,6,0,24,0,,,,,57.41295191698009,,57.40335579199018,57.41295191698009,58.39709416698315,58.39709416698315,58.39709416698315,58.39709416698315,58.40451179197407,59.39427908297512,59.39427908297512,59.729555957979755,x,1,0.3263702089898288,None,,,,,1,001,2024-11-18_22h11.11.707,Motor Sequence Learning,2024.2.4,None,2024-11-18 22h11.20.128953 +0530,
150,v,25,1,6,v,1,0.29290295898681507,None,6,1,25,1,,,,,59.73981529197772,,59.73016083298717,59.73981529197772,60.72860395797761,60.72860395797761,60.72860395797761,60.72860395797761,60.73603520798497,61.72021112497896,61.72021112497896,62.01610058298684,v,1,0.29290295898681507,None,,,,,1,001,2024-11-18_22h11.11.707,Motor Sequence Learning,2024.2.4,None,2024-11-18 22h11.20.128953 +0530,
50,c,26,2,6,c,1,0.2624879160139244,None,6,2,26,2,,,,,62.02563337498577,,62.01652449998073,62.02563337498577,63.01327537497855,63.01327537497855,63.01327537497855,63.01327537497855,63.020722707995446,64.01162474998273,64.01162474998273,64.28114991699113,c,1,0.2624879160139244,None,,,,,1,001,2024-11-18_22h11.11.707,Motor Sequence Learning,2024.2.4,None,2024-11-18 22h11.20.128953 +0530,
-150,z,27,3,6,z,1,0.48507808399153873,None,6,3,27,3,,,,,64.29116100000101,,64.2817453329917,64.29116100000101,65.27898299999651,65.27898299999651,65.27898299999651,65.27898299999651,65.28600958298193,66.27823291698587,66.27823291698587,66.76910279199365,z,1,0.48507808399153873,None,,,,,1,001,2024-11-18_22h11.11.707,Motor Sequence Learning,2024.2.4,None,2024-11-18 22h11.20.128953 +0530,
-50,x,28,0,7,x,1,0.3003535410098266,None,7,0,28,0,,,,,66.77964633298689,,66.76947741699405,66.77964633298689,67.76313654199475,67.76313654199475,67.76313654199475,67.76313654199475,67.76958354198723,68.7624622079893,68.7624622079893,69.06529379199492,x,1,0.3003535410098266,None,,,,,1,001,2024-11-18_22h11.11.707,Motor Sequence Learning,2024.2.4,None,2024-11-18 22h11.20.128953 +0530,
150,v,29,1,7,v,1,0.24042962500243448,None,7,1,29,1,,,,,69.07642354199197,,69.06593220797367,69.07642354199197,70.06272241697297,70.06272241697297,70.06272241697297,70.06272241697297,70.06971266699838,71.06082966699614,71.06082966699614,71.30389183299849,v,1,0.24042962500243448,None,,,,,1,001,2024-11-18_22h11.11.707,Motor Sequence Learning,2024.2.4,None,2024-11-18 22h11.20.128953 +0530,
50,c,30,2,7,c,1,0.3429259580152575,None,7,2,30,2,,,,,71.31466904198169,,71.30429924998316,71.31466904198169,72.2959412499913,72.2959412499913,72.2959412499913,72.2959412499913,72.31200416697538,73.31325729200034,73.31325729200034,73.66488283299259,c,1,0.3429259580152575,None,,,,,1,001,2024-11-18_22h11.11.707,Motor Sequence Learning,2024.2.4,None,2024-11-18 22h11.20.128953 +0530,
-150,z,31,3,7,z,1,4.290105499996571,None,7,3,31,3,,,,,73.67932520798058,,73.66528758298955,73.67932520798058,74.66195045798668,74.66195045798668,74.66195045798668,74.66195045798668,74.66706908299238,75.66086820798228,75.66086820798228,79.97383445798187,z,1,4.290105499996571,None,,,,,1,001,2024-11-18_22h11.11.707,Motor Sequence Learning,2024.2.4,None,2024-11-18 22h11.20.128953 +0530,
-50,x,32,0,8,x,1,3.829581666010199,None,8,0,32,0,,,,,80.25516245799372,,79.97882891699555,80.25516245799372,80.96928783299518,80.96928783299518,80.96928783299518,80.96928783299518,81.25131699998747,81.9710683329904,81.9710683329904,85.80198362498777,x,1,3.829581666010199,None,,,,,1,001,2024-11-18_22h11.11.707,Motor Sequence Learning,2024.2.4,None,2024-11-18 22h11.20.128953 +0530,
150,v,33,1,8,v,1,0.6840869580046274,None,8,1,33,1,,,,,85.81234495798708,,85.8022678749985,85.81234495798708,86.79717887498555,86.79717887498555,86.79717887498555,86.79717887498555,86.8039034169924,87.79571854198002,87.79571854198002,88.49201458299649,v,1,0.6840869580046274,None,,,,,1,001,2024-11-18_22h11.11.707,Motor Sequence Learning,2024.2.4,None,2024-11-18 22h11.20.128953 +0530,
50,c,34,2,8,c,1,0.4511939999938477,None,8,2,34,2,,,,,88.49976916698506,,88.49235687498003,88.49976916698506,89.48842095799046,89.48842095799046,89.48842095799046,89.48842095799046,89.49594899997464,90.48639474998345,90.48639474998345,90.94951516698347,c,1,0.4511939999938477,None,,,,,1,001,2024-11-18_22h11.11.707,Motor Sequence Learning,2024.2.4,None,2024-11-18 22h11.20.128953 +0530,
-150,z,35,3,8,z,1,0.8857293339970056,None,8,3,35,3,,,,,90.95980829198379,,90.94997191699804,90.95980829198379,91.946266791987,91.946266791987,91.946266791987,91.946266791987,91.95306941698072,92.94569533297908,92.94569533297908,93.8361713749764,z,1,0.8857293339970056,None,,,,,1,001,2024-11-18_22h11.11.707,Motor Sequence Learning,2024.2.4,None,2024-11-18 22h11.20.128953 +0530,
-50,x,36,0,9,x,1,0.5235242919879965,None,9,0,36,0,,,,,93.84655454198946,,93.83655183299561,93.84655454198946,94.83168179198401,94.83168179198401,94.83168179198401,94.83168179198401,94.83819483299158,95.82898804199067,95.82898804199067,96.35438449998037,x,1,0.5235242919879965,None,,,,,1,001,2024-11-18_22h11.11.707,Motor Sequence Learning,2024.2.4,None,2024-11-18 22h11.20.128953 +0530,
150,v,37,1,9,v,1,0.4259072919958271,None,9,1,37,1,,,,,96.36263391698594,,96.35482512498857,96.36263391698594,97.3484119999921,97.3484119999921,97.3484119999921,97.3484119999921,97.35506883298513,98.35299554199446,98.35299554199446,98.7814369169937,v,1,0.4259072919958271,None,,,,,1,001,2024-11-18_22h11.11.707,Motor Sequence Learning,2024.2.4,None,2024-11-18 22h11.20.128953 +0530,
50,c,38,2,9,c,1,0.2788104169885628,None,9,2,38,2,,,,,98.7915365829831,,98.7818151669926,98.7915365829831,99.79509195798892,99.79509195798892,99.79509195798892,99.79509195798892,99.812082791992,100.77734870798304,100.77734870798304,101.06381045799935,c,1,0.2788104169885628,None,,,,,1,001,2024-11-18_22h11.11.707,Motor Sequence Learning,2024.2.4,None,2024-11-18 22h11.20.128953 +0530,
-150,z,39,3,9,z,1,0.978817415976664,None,9,3,39,3,,,,,101.07279487498454,,101.06417254198459,101.07279487498454,102.05698879199917,102.05698879199917,102.05698879199917,102.05698879199917,102.06451099997503,103.06067366700154,103.06067366700154,104.04689812500146,z,1,0.978817415976664,None,,,,,1,001,2024-11-18_22h11.11.707,Motor Sequence Learning,2024.2.4,None,2024-11-18 22h11.20.128953 +0530,
-50,x,40,0,10,x,1,0.8442283750046045,None,10,0,40,0,,,,,104.05627079197438,,104.04720408297726,104.05627079197438,105.04618412497803,105.04618412497803,105.04618412497803,105.04618412497803,105.05320545798168,106.04556808297639,106.04556808297639,106.89699845798896,x,1,0.8442283750046045,None,,,,,1,001,2024-11-18_22h11.11.707,Motor Sequence Learning,2024.2.4,None,2024-11-18 22h11.20.128953 +0530,
150,v,41,1,10,v,1,0.6085661250108387,None,10,1,41,1,,,,,106.90662187497946,,106.89736499998253,106.90662187497946,107.88972583299619,107.88972583299619,107.88972583299619,107.88972583299619,107.89752195798792,108.89385449999827,108.89385449999827,109.5134557079873,v,1,0.6085661250108387,None,,,,,1,001,2024-11-18_22h11.11.707,Motor Sequence Learning,2024.2.4,None,2024-11-18 22h11.20.128953 +0530,
50,c,42,2,10,c,1,0.26694720800151117,None,10,2,42,2,,,,,109.5228171669878,,109.51382924997597,109.5228171669878,110.5120172079769,110.5120172079769,110.5120172079769,110.5120172079769,110.51908425000147,111.5123915829754,111.5123915829754,111.78211074997671,c,1,0.26694720800151117,None,,,,,1,001,2024-11-18_22h11.11.707,Motor Sequence Learning,2024.2.4,None,2024-11-18 22h11.20.128953 +0530,
-150,z,43,3,10,z,1,0.7346268749970477,None,10,3,43,3,,,,,111.79180829197867,,111.78246979200048,111.79180829197867,112.77381229199818,112.77381229199818,112.77381229199818,112.77381229199818,112.79571195799508,113.77890145799029,113.77890145799029,114.52074579198961,z,1,0.7346268749970477,None,,,,,1,001,2024-11-18_22h11.11.707,Motor Sequence Learning,2024.2.4,None,2024-11-18 22h11.20.128953 +0530,
-50,x,44,0,11,x,1,1.409779375011567,None,11,0,44,0,,,,,114.54484508300084,,114.52134666699567,114.54484508300084,115.52028758300003,115.52028758300003,115.52028758300003,115.52028758300003,115.53598812498967,116.51921199998469,116.51921199998469,117.93158962499001,x,1,1.409779375011567,None,,,,,1,001,2024-11-18_22h11.11.707,Motor Sequence Learning,2024.2.4,None,2024-11-18 22h11.20.128953 +0530,
150,v,45,1,11,b,0,1.1308687080163509,None,11,1,45,1,,,,,117.94128979198285,,117.93220408298657,117.94128979198285,118.92934499998228,118.92934499998228,118.92934499998228,118.92934499998228,118.93635970799369,119.92722991699702,119.92722991699702,121.06517037498998,b,0,1.1308687080163509,None,,,,,1,001,2024-11-18_22h11.11.707,Motor Sequence Learning,2024.2.4,None,2024-11-18 22h11.20.128953 +0530,
50,c,46,2,11,c,1,1.3884571669914294,None,11,2,46,2,,,,,121.07513962499797,,121.0656560829957,121.07513962499797,122.06396912498167,122.06396912498167,122.06396912498167,122.06396912498167,122.07092370800092,123.06241554199369,123.06241554199369,124.46434858298744,c,1,1.3884571669914294,None,,,,,1,001,2024-11-18_22h11.11.707,Motor Sequence Learning,2024.2.4,None,2024-11-18 22h11.20.128953 +0530,
-150,z,47,3,11,z,1,1.5409045420237817,None,11,3,47,3,,,,,124.47551404198748,,124.46499379197485,124.47551404198748,125.47950879199198,125.47950879199198,125.47950879199198,125.47950879199198,125.47950879199198,126.46147533299518,126.46147533299518,128.01502420799807,z,1,1.5409045420237817,None,,,,,1,001,2024-11-18_22h11.11.707,Motor Sequence Learning,2024.2.4,None,2024-11-18 22h11.20.128953 +0530,
-50,x,48,0,12,x,1,3.021919416001765,None,12,0,48,0,,,,,128.0263696249749,,128.0156898329733,128.0263696249749,129.0128368329897,129.0128368329897,129.0128368329897,129.0128368329897,129.0198062499985,130.01210875000106,130.01210875000106,133.03699483297532,x,1,3.021919416001765,None,,,,,1,001,2024-11-18_22h11.11.707,Motor Sequence Learning,2024.2.4,None,2024-11-18 22h11.20.128953 +0530,
150,v,49,1,12,v,1,4.156101708998904,None,12,1,49,1,,,,,133.04755162500078,,133.03746699998737,133.04755162500078,134.03153691699845,134.03153691699845,134.03153691699845,134.03153691699845,134.03827633298351,135.03655708298902,135.03655708298902,139.19469416697393,v,1,4.156101708998904,None,,,,,1,001,2024-11-18_22h11.11.707,Motor Sequence Learning,2024.2.4,None,2024-11-18 22h11.20.128953 +0530,
50,c,50,2,12,c,1,0.7439237910148222,None,12,2,50,2,,,,,139.20445504199597,,139.19499166699825,139.20445504199597,140.18938699999126,140.18938699999126,140.18938699999126,140.18938699999126,140.19685774997924,141.18725591700058,141.18725591700058,141.93891679198714,c,1,0.7439237910148222,None,,,,,1,001,2024-11-18_22h11.11.707,Motor Sequence Learning,2024.2.4,None,2024-11-18 22h11.20.128953 +0530,
-150,z,51,3,12,z,1,0.7911886670044623,None,12,3,51,3,,,,,141.94972654199228,,141.9395251669921,141.94972654199228,142.94513274999917,142.94513274999917,142.94513274999917,142.94513274999917,142.96165541699156,143.9327724169998,143.9327724169998,144.730112499994,z,1,0.7911886670044623,None,,,,,1,001,2024-11-18_22h11.11.707,Motor Sequence Learning,2024.2.4,None,2024-11-18 22h11.20.128953 +0530,
-50,x,52,0,13,x,1,0.28725616598967463,None,13,0,52,0,,,,,144.74144608297502,,144.73079470798257,144.74144608297502,145.72857724997448,145.72857724997448,145.72857724997448,145.72857724997448,145.73559958298574,146.7286237499793,146.7286237499793,147.02045625000028,x,1,0.28725616598967463,None,,,,,1,001,2024-11-18_22h11.11.707,Motor Sequence Learning,2024.2.4,None,2024-11-18 22h11.20.128953 +0530,
150,v,53,1,13,v,1,0.2982093329774216,None,13,1,53,1,,,,,147.03127633300028,,147.02086074999534,147.03127633300028,148.02071320798132,148.02071320798132,148.02071320798132,148.02071320798132,148.02796349997516,149.01964449998923,149.01964449998923,149.3312999579939,v,1,0.2982093329774216,None,,,,,1,001,2024-11-18_22h11.11.707,Motor Sequence Learning,2024.2.4,None,2024-11-18 22h11.20.128953 +0530,
50,c,54,2,13,c,1,0.4272505000117235,None,13,2,54,2,,,,,149.3415462919802,,149.33169104199624,149.3415462919802,150.34502779197646,150.34502779197646,150.34502779197646,150.34502779197646,150.3617592919909,151.32699545798823,151.32699545798823,151.76212470798055,c,1,0.4272505000117235,None,,,,,1,001,2024-11-18_22h11.11.707,Motor Sequence Learning,2024.2.4,None,2024-11-18 22h11.20.128953 +0530,
-150,z,55,3,13,z,1,0.5757930830004625,None,13,3,55,3,,,,,151.77261004198226,,151.76254237498506,151.77261004198226,152.7568204579875,152.7568204579875,152.7568204579875,152.7568204579875,152.76413570798468,153.75275874999352,153.75275874999352,154.3308943749871,z,1,0.5757930830004625,None,,,,,1,001,2024-11-18_22h11.11.707,Motor Sequence Learning,2024.2.4,None,2024-11-18 22h11.20.128953 +0530,
-50,x,56,0,14,x,1,1.1440490410022903,None,14,0,56,0,,,,,154.3419293749903,,154.33147274999646,154.3419293749903,155.33100112498505,155.33100112498505,155.33100112498505,155.33100112498505,155.3455340829969,156.32807316698018,156.32807316698018,157.479637041979,x,1,1.1440490410022903,None,,,,,1,001,2024-11-18_22h11.11.707,Motor Sequence Learning,2024.2.4,None,2024-11-18 22h11.20.128953 +0530,
150,v,57,1,14,v,1,1.1499371670070104,None,14,1,57,1,,,,,157.48973104197648,,157.48003558299388,157.48973104197648,158.47231995797483,158.47231995797483,158.47231995797483,158.47231995797483,158.49489683299907,159.47834274999332,159.47834274999332,160.63114625000162,v,1,1.1499371670070104,None,,,,,1,001,2024-11-18_22h11.11.707,Motor Sequence Learning,2024.2.4,None,2024-11-18 22h11.20.128953 +0530,
50,c,58,2,14,c,1,1.2893245829909574,None,14,2,58,2,,,,,160.6429645419994,,160.6317885829776,160.6429645419994,161.62928999998257,161.62928999998257,161.62928999998257,161.62928999998257,161.6362471669854,162.63677716697566,162.63677716697566,163.93052024999633,c,1,1.2893245829909574,None,,,,,1,001,2024-11-18_22h11.11.707,Motor Sequence Learning,2024.2.4,None,2024-11-18 22h11.20.128953 +0530,
-150,z,59,3,14,z,1,0.7649367080011871,None,14,3,59,3,,,,,163.94094129197765,,163.93118975000107,163.94094129197765,164.93717083299998,164.93717083299998,164.93717083299998,164.93717083299998,164.93717083299998,165.92675166699337,165.92675166699337,166.69693320797523,z,1,0.7649367080011871,None,,,,,1,001,2024-11-18_22h11.11.707,Motor Sequence Learning,2024.2.4,None,2024-11-18 22h11.20.128953 +0530,
-50,x,60,0,15,x,1,0.6412744999979623,None,15,0,60,0,,,,,166.706616749987,,166.69737708297907,166.706616749987,167.68813249998493,167.68813249998493,167.68813249998493,167.68813249998493,167.70449137498508,168.69523524999386,168.69523524999386,169.34645658297813,x,1,0.6412744999979623,None,,,,,1,001,2024-11-18_22h11.11.707,Motor Sequence Learning,2024.2.4,None,2024-11-18 22h11.20.128953 +0530,
150,v,61,1,15,v,1,1.5278640420001466,None,15,1,61,1,,,,,169.35561637498904,,169.34683124997537,169.35561637498904,170.33983883299516,170.33983883299516,170.33983883299516,170.33983883299516,170.34725137497298,171.34468295797706,171.34468295797706,172.8805062919855,v,1,1.5278640420001466,None,,,,,1,001,2024-11-18_22h11.11.707,Motor Sequence Learning,2024.2.4,None,2024-11-18 22h11.20.128953 +0530,
50,c,62,2,15,c,1,1.163900832994841,None,15,2,62,2,,,,,172.89025162498,,172.88108312498662,172.89025162498,173.89472266699886,173.89472266699886,173.89472266699886,173.89472266699886,173.91153529199073,174.87867824998102,174.87867824998102,176.04683262499748,c,1,1.163900832994841,None,,,,,1,001,2024-11-18_22h11.11.707,Motor Sequence Learning,2024.2.4,None,2024-11-18 22h11.20.128953 +0530,
-150,z,63,3,15,z,1,0.7448637089983094,None,15,3,63,3,,,,,176.06160320798517,,176.04748512498918,176.06160320798517,177.03976449999027,177.03976449999027,177.03976449999027,177.03976449999027,177.06184620797285,178.044994166994,178.044994166994,178.7967666249897,z,1,0.7448637089983094,None,,,,,1,001,2024-11-18_22h11.11.707,Motor Sequence Learning,2024.2.4,None,2024-11-18 22h11.20.128953 +0530,
-50,x,64,0,16,x,1,0.634764415997779,None,16,0,64,0,,,,,178.8068959999946,,178.79735591699136,178.8068959999946,179.79714095799136,179.79714095799136,179.79714095799136,179.79714095799136,179.8120271669759,180.79398579199915,180.79398579199915,181.4365710829734,x,1,0.634764415997779,None,,,,,1,001,2024-11-18_22h11.11.707,Motor Sequence Learning,2024.2.4,None,2024-11-18 22h11.20.128953 +0530,
150,v,65,1,16,v,1,1.6926882499828935,None,16,1,65,1,,,,,181.44705745799,,181.4369710419851,181.44705745799,182.4305922499916,182.4305922499916,182.4305922499916,182.4305922499916,182.44529624999268,183.43555483297678,183.43555483297678,185.13062104198616,v,1,1.6926882499828935,None,,,,,1,001,2024-11-18_22h11.11.707,Motor Sequence Learning,2024.2.4,None,2024-11-18 22h11.20.128953 +0530,
50,c,66,2,16,c,1,0.8206251250230707,None,16,2,66,2,,,,,185.14157270797295,,185.1312652079796,185.14157270797295,186.12811512500048,186.12811512500048,186.12811512500048,186.12811512500048,186.13464429197484,187.1283607079822,187.1283607079822,187.95254804199794,c,1,0.8206251250230707,None,,,,,1,001,2024-11-18_22h11.11.707,Motor Sequence Learning,2024.2.4,None,2024-11-18 22h11.20.128953 +0530,
-150,z,67,3,16,z,1,1.3861267080064863,None,16,3,67,3,,,,,187.96311704197433,,187.9529329999932,187.96311704197433,188.96137508298852,188.96137508298852,188.96137508298852,188.96137508298852,188.9779608329991,189.94330454198644,189.94330454198644,191.3345161670004,z,1,1.3861267080064863,None,,,,,1,001,2024-11-18_22h11.11.707,Motor Sequence Learning,2024.2.4,None,2024-11-18 22h11.20.128953 +0530,
-50,x,68,0,17,x,1,1.347275083011482,None,17,0,68,0,,,,,191.3447096249729,,191.33486487498158,191.3447096249729,192.32803295800113,192.32803295800113,192.32803295800113,192.32803295800113,192.33466649998445,193.3283276669972,193.3283276669972,194.67969483300112,x,1,1.347275083011482,None,,,,,1,001,2024-11-18_22h11.11.707,Motor Sequence Learning,2024.2.4,None,2024-11-18 22h11.20.128953 +0530,
150,v,69,1,17,v,1,1.0186728330154438,None,17,1,69,1,,,,,194.6870871669962,,194.68013383299694,194.6870871669962,195.67913454197696,195.67913454197696,195.67913454197696,195.67913454197696,195.69541029198444,196.67660404197522,196.67660404197522,197.7035910419945,v,1,1.0186728330154438,None,,,,,1,001,2024-11-18_22h11.11.707,Motor Sequence Learning,2024.2.4,None,2024-11-18 22h11.20.128953 +0530,
50,c,70,2,17,c,1,0.925932832993567,None,17,2,70,2,,,,,197.71437383297598,,197.70390912497533,197.71437383297598,198.69736562497565,198.69736562497565,198.69736562497565,198.69736562497565,198.71164279198274,199.70214249999844,199.70214249999844,200.62978770799236,c,1,0.925932832993567,None,,,,,1,001,2024-11-18_22h11.11.707,Motor Sequence Learning,2024.2.4,None,2024-11-18 22h11.20.128953 +0530,
-150,z,71,3,17,lalt,0,0.6040577079984359,None,17,3,71,3,,,,,200.63699141697725,,200.63023004197748,200.63699141697725,201.62989399998332,201.62989399998332,201.62989399998332,201.62989399998332,201.63637779199053,202.6265136669972,202.6265136669972,203.23664729198208,lalt,0,0.6040577079984359,None,,,,,1,001,2024-11-18_22h11.11.707,Motor Sequence Learning,2024.2.4,None,2024-11-18 22h11.20.128953 +0530,
-50,x,72,0,18,x,1,0.8429992079909425,None,18,0,72,0,,,,,203.24714862499968,,203.23699349997332,203.24714862499968,204.2288370829774,204.2288370829774,204.2288370829774,204.2288370829774,204.2447017079976,205.23521512499428,205.23521512499428,206.0810636249953,x,1,0.8429992079909425,None,,,,,1,001,2024-11-18_22h11.11.707,Motor Sequence Learning,2024.2.4,None,2024-11-18 22h11.20.128953 +0530,
150,v,73,1,18,v,1,0.8859775000018999,None,18,1,73,1,,,,,206.09056204199442,,206.08153170798323,206.09056204199442,207.07673599998816,207.07673599998816,207.07673599998816,207.07673599998816,207.0833459169953,208.07646433298942,208.07646433298942,208.9696397499938,v,1,0.8859775000018999,None,,,,,1,001,2024-11-18_22h11.11.707,Motor Sequence Learning,2024.2.4,None,2024-11-18 22h11.20.128953 +0530,
50,c,74,2,18,c,1,0.34364358300808817,None,18,2,74,2,,,,,208.9799076669733,,208.97002249999787,208.9799076669733,209.9777550829749,209.9777550829749,209.9777550829749,209.9777550829749,209.99449866698706,210.96865754199098,210.96865754199098,211.3176800829824,c,1,0.34364358300808817,None,,,,,1,001,2024-11-18_22h11.11.707,Motor Sequence Learning,2024.2.4,None,2024-11-18 22h11.20.128953 +0530,
-150,z,75,3,18,z,1,0.6687940830015577,None,18,3,75,3,,,,,211.3286275419814,,211.3180904579931,211.3286275419814,212.31360462500015,212.31360462500015,212.31360462500015,212.31360462500015,212.320569582982,213.3115967499907,213.3115967499907,213.98652662499808,z,1,0.6687940830015577,None,,,,,1,001,2024-11-18_22h11.11.707,Motor Sequence Learning,2024.2.4,None,2024-11-18 22h11.20.128953 +0530,
-50,x,76,0,19,x,1,0.2665647079993505,None,19,0,76,0,,,,,213.99750233298982,,213.98690720798913,213.99750233298982,214.97996833297657,214.97996833297657,214.97996833297657,214.97996833297657,214.98751854198053,215.98514195799362,215.98514195799362,216.25413049999042,x,1,0.2665647079993505,None,,,,,1,001,2024-11-18_22h11.11.707,Motor Sequence Learning,2024.2.4,None,2024-11-18 22h11.20.128953 +0530,
150,v,77,1,19,v,1,0.25457229098537937,None,19,1,77,1,,,,,216.2623451249965,,216.25457437499426,216.2623451249965,217.24735637498088,217.24735637498088,217.24735637498088,217.24735637498088,217.26153633298236,218.25249358298606,218.25249358298606,218.5127487499849,v,1,0.25457229098537937,None,,,,,1,001,2024-11-18_22h11.11.707,Motor Sequence Learning,2024.2.4,None,2024-11-18 22h11.20.128953 +0530,
50,c,78,2,19,c,1,0.29421491699758917,None,19,2,78,2,,,,,218.52216845797375,,218.51311233299202,218.52216845797375,219.50531158299418,219.50531158299418,219.50531158299418,219.50531158299418,219.5277674579993,220.5114945829846,220.5114945829846,220.81160087499302,c,1,0.29421491699758917,None,,,,,1,001,2024-11-18_22h11.11.707,Motor Sequence Learning,2024.2.4,None,2024-11-18 22h11.20.128953 +0530,
-150,z,79,3,19,z,1,0.29316962501616217,None,19,3,79,3,,,,,220.82095712498995,,220.81193541697576,220.82095712498995,221.81179683297523,221.81179683297523,221.81179683297523,221.81179683297523,221.8183254999749,222.80177999997977,222.80177999997977,223.0968657079793,z,1,0.29316962501616217,None,,,,,1,001,2024-11-18_22h11.11.707,Motor Sequence Learning,2024.2.4,None,2024-11-18 22h11.20.128953 +0530,
-50,x,80,0,20,x,1,0.38957312499405816,None,20,0,80,0,,,,,223.10443279199535,,223.09732283299672,223.10443279199535,224.09513916698052,224.09513916698052,224.09513916698052,224.09513916698052,224.10183424997376,225.0947499999893,225.0947499999893,225.48667141699116,x,1,0.38957312499405816,None,,,,,1,001,2024-11-18_22h11.11.707,Motor Sequence Learning,2024.2.4,None,2024-11-18 22h11.20.128953 +0530,
150,v,81,1,20,v,1,0.9315007080149371,None,20,1,81,1,,,,,225.4975061249861,,225.48723516697646,225.4975061249861,226.48009079199983,226.48009079199983,226.48009079199983,226.48009079199983,226.48708445800003,227.4851150829927,227.4851150829927,228.41955958298058,v,1,0.9315007080149371,None,,,,,1,001,2024-11-18_22h11.11.707,Motor Sequence Learning,2024.2.4,None,2024-11-18 22h11.20.128953 +0530,
50,c,82,2,20,c,1,0.30352091701934114,None,20,2,82,2,,,,,228.42994304199237,,228.41994395799702,228.42994304199237,229.41934274998493,229.41934274998493,229.41934274998493,229.41934274998493,229.4262479999743,230.4187742919894,230.4187742919894,230.72986737499014,c,1,0.30352091701934114,None,,,,,1,001,2024-11-18_22h11.11.707,Motor Sequence Learning,2024.2.4,None,2024-11-18 22h11.20.128953 +0530,
-150,z,83,3,20,z,1,0.26131491601699963,None,20,3,83,3,,,,,230.74053766697762,,230.73046299998532,230.74053766697762,231.73044941699482,231.73044941699482,231.73044941699482,231.73044941699482,231.74475437498768,232.72683349999716,232.72683349999716,232.99725070799468,z,1,0.26131491601699963,None,,,,,1,001,2024-11-18_22h11.11.707,Motor Sequence Learning,2024.2.4,None,2024-11-18 22h11.20.128953 +0530,
-50,x,84,0,21,x,1,0.27971579201403074,None,21,0,84,0,,,,,233.00722612498794,,232.99782804198912,233.00722612498794,233.99588362500072,233.99588362500072,233.99588362500072,233.99588362500072,234.00297437497647,234.99291829197318,234.99291829197318,235.27974916697713,x,1,0.27971579201403074,None,,,,,1,001,2024-11-18_22h11.11.707,Motor Sequence Learning,2024.2.4,None,2024-11-18 22h11.20.128953 +0530,
150,v,85,1,21,v,1,0.2622490000212565,None,21,1,85,1,,,,,235.28918299998622,,235.28036441697623,235.28918299998622,236.2781786249834,236.2781786249834,236.2781786249834,236.2781786249834,236.28583337497548,237.27777708298527,237.27777708298527,237.54610629199306,v,1,0.2622490000212565,None,,,,,1,001,2024-11-18_22h11.11.707,Motor Sequence Learning,2024.2.4,None,2024-11-18 22h11.20.128953 +0530,
50,c,86,2,21,c,1,0.2758007090014871,None,21,2,86,2,,,,,237.55558637497597,,237.54648012499092,237.55558637497597,238.53962629198213,238.53962629198213,238.53962629198213,238.53962629198213,238.54674454199267,239.54413774999557,239.54413774999557,239.8300940420013,c,1,0.2758007090014871,None,,,,,1,001,2024-11-18_22h11.11.707,Motor Sequence Learning,2024.2.4,None,2024-11-18 22h11.20.128953 +0530,
-150,z,87,3,21,z,1,0.283662791014649,None,21,3,87,3,,,,,239.839984249993,,239.83069391699973,239.839984249993,240.82813766697655,240.82813766697655,240.82813766697655,240.82813766697655,240.8346489579999,241.82788837497355,241.82788837497355,242.11421266698744,z,1,0.283662791014649,None,,,,,1,001,2024-11-18_22h11.11.707,Motor Sequence Learning,2024.2.4,None,2024-11-18 22h11.20.128953 +0530,
-50,x,88,0,22,x,1,0.2656939590233378,None,22,0,88,0,,,,,242.1237760419899,,242.114706458,242.1237760419899,243.11246583299362,243.11246583299362,243.11246583299362,243.11246583299362,243.1193585829751,244.11134029197274,244.11134029197274,244.3794506249833,x,1,0.2656939590233378,None,,,,,1,001,2024-11-18_22h11.11.707,Motor Sequence Learning,2024.2.4,None,2024-11-18 22h11.20.128953 +0530,
150,v,89,1,22,v,1,0.30413591698743403,None,22,1,89,1,,,,,244.39450204197783,,244.37981337498059,244.39450204197783,245.37309208299848,245.37309208299848,245.37309208299848,245.37309208299848,245.39466074999655,246.37611287497566,246.37611287497566,246.68612441699952,v,1,0.30413591698743403,None,,,,,1,001,2024-11-18_22h11.11.707,Motor Sequence Learning,2024.2.4,None,2024-11-18 22h11.20.128953 +0530,
50,c,90,2,22,c,1,0.25398799998220056,None,22,2,90,2,,,,,246.6972893329803,,246.6865614579874,246.6972893329803,247.6781327079807,247.6781327079807,247.6781327079807,247.6781327079807,247.69405045799795,248.68508779199328,248.68508779199328,248.9451874999795,c,1,0.25398799998220056,None,,,,,1,001,2024-11-18_22h11.11.707,Motor Sequence Learning,2024.2.4,None,2024-11-18 22h11.20.128953 +0530,
-150,z,91,3,22,z,1,0.2711624170187861,None,22,3,91,3,,,,,248.95431762500084,,248.94553324999288,248.95431762500084,249.93783316700137,249.93783316700137,249.93783316700137,249.93783316700137,249.94513520799228,250.93495316698682,250.93495316698682,251.2124072079896,z,1,0.2711624170187861,None,,,,,1,001,2024-11-18_22h11.11.707,Motor Sequence Learning,2024.2.4,None,2024-11-18 22h11.20.128953 +0530,
-50,x,92,0,23,x,1,0.2740960420051124,None,23,0,92,0,,,,,251.22171454198542,,251.21296974999132,251.22171454198542,252.2108426669729,252.2108426669729,252.2108426669729,252.2108426669729,252.21747729199706,253.2094121669943,253.2094121669943,253.4857474169985,x,1,0.2740960420051124,None,,,,,1,001,2024-11-18_22h11.11.707,Motor Sequence Learning,2024.2.4,None,2024-11-18 22h11.20.128953 +0530,
150,v,93,1,23,v,1,0.3391645000083372,None,23,1,93,1,,,,,253.4937902079837,,253.4861798749771,253.4937902079837,254.48387237498537,254.48387237498537,254.48387237498537,254.48387237498537,254.48387237498537,255.48537633297383,255.48537633297383,255.83004729199456,v,1,0.3391645000083372,None,,,,,1,001,2024-11-18_22h11.11.707,Motor Sequence Learning,2024.2.4,None,2024-11-18 22h11.20.128953 +0530,
50,c,94,2,23,c,1,0.35439100000075996,None,23,2,94,2,,,,,255.84035883299657,,255.83058974999585,255.84035883299657,256.83120641697315,256.83120641697315,256.83120641697315,256.83120641697315,256.8445715419948,257.83535508299246,257.83535508299246,258.1965912919841,c,1,0.35439100000075996,None,,,,,1,001,2024-11-18_22h11.11.707,Motor Sequence Learning,2024.2.4,None,2024-11-18 22h11.20.128953 +0530,
-150,z,95,3,23,z,1,0.2523648750211578,None,23,3,95,3,,,,,258.206743207993,,258.19703549999394,258.206743207993,259.19505120799295,259.19505120799295,259.19505120799295,259.19505120799295,259.20169124999666,260.20105904198135,260.20105904198135,260.46250508297817,z,1,0.2523648750211578,None,,,,,1,001,2024-11-18_22h11.11.707,Motor Sequence Learning,2024.2.4,None,2024-11-18 22h11.20.128953 +0530,
-50,x,96,0,24,x,1,0.3708922079822514,None,24,0,96,0,,,,,260.47269404199324,,260.4629663749947,260.47269404199324,261.4607899999828,261.4607899999828,261.4607899999828,261.4607899999828,261.46756845799973,262.46108374997857,262.46108374997857,262.8361226669804,x,1,0.3708922079822514,None,,,,,1,001,2024-11-18_22h11.11.707,Motor Sequence Learning,2024.2.4,None,2024-11-18 22h11.20.128953 +0530,
150,v,97,1,24,v,1,0.3165714589995332,None,24,1,97,1,,,,,262.8466417499876,,262.8365302499733,262.8466417499876,263.8369273749995,263.8369273749995,263.8369273749995,263.8369273749995,263.8439091249893,264.83491991698975,264.83491991698975,265.16268458298873,v,1,0.3165714589995332,None,,,,,1,001,2024-11-18_22h11.11.707,Motor Sequence Learning,2024.2.4,None,2024-11-18 22h11.20.128953 +0530,
50,c,98,2,24,c,1,0.28460875002201647,None,24,2,98,2,,,,,265.1731181249779,,265.16323770798044,265.1731181249779,266.1603497079923,266.1603497079923,266.1603497079923,266.1603497079923,266.16726891699363,267.1599994999997,267.1599994999997,267.4461536669987,c,1,0.28460875002201647,None,,,,,1,001,2024-11-18_22h11.11.707,Motor Sequence Learning,2024.2.4,None,2024-11-18 22h11.20.128953 +0530,
-150,z,99,3,24,z,1,0.5193954580172431,None,24,3,99,3,,,,,267.4536551249912,,267.4465405829833,267.4536551249912,268.4445056669938,268.4445056669938,268.4445056669938,268.4445056669938,268.4510493330017,269.4443080419733,269.4443080419733,269.96801541699097,z,1,0.5193954580172431,None,,,,,1,001,2024-11-18_22h11.11.707,Motor Sequence Learning,2024.2.4,None,2024-11-18 22h11.20.128953 +0530,
-50,x,100,0,25,x,1,0.34471608299645595,None,25,0,100,0,,,,,269.9968996249954,,269.9684254169988,269.9968996249954,270.96083674998954,270.96083674998954,270.96083674998954,270.96083674998954,270.9939524579968,271.9594552079798,271.9594552079798,272.3133946250018,x,1,0.34471608299645595,None,,,,,1,001,2024-11-18_22h11.11.707,Motor Sequence Learning,2024.2.4,None,2024-11-18 22h11.20.128953 +0530,
150,v,101,1,25,v,1,0.3006750420026947,None,25,1,101,1,,,,,272.3235860419809,,272.31398912498844,272.3235860419809,273.3133503329882,273.3133503329882,273.3133503329882,273.3133503329882,273.3200277919823,274.3103120419837,274.3103120419837,274.61280974998954,v,1,0.3006750420026947,None,,,,,1,001,2024-11-18_22h11.11.707,Motor Sequence Learning,2024.2.4,None,2024-11-18 22h11.20.128953 +0530,
50,c,102,2,25,c,1,0.28793508402304724,None,25,2,102,2,,,,,274.62032162499963,,274.613257332996,274.62032162499963,275.61143033299595,275.61143033299595,275.61143033299595,275.61143033299595,275.6183569999994,276.6109527499939,276.6109527499939,276.901848916983,c,1,0.28793508402304724,None,,,,,1,001,2024-11-18_22h11.11.707,Motor Sequence Learning,2024.2.4,None,2024-11-18 22h11.20.128953 +0530,
-150,z,103,3,25,z,1,0.3768779590027407,None,25,3,103,3,,,,,276.91226666700095,,276.9022438329994,276.91226666700095,277.89637174998643,277.89637174998643,277.89637174998643,277.89637174998643,277.9032574169978,278.9017339999846,278.9017339999846,279.28588504198706,z,1,0.3768779590027407,None,,,,,1,001,2024-11-18_22h11.11.707,Motor Sequence Learning,2024.2.4,None,2024-11-18 22h11.20.128953 +0530,
-50,x,104,0,26,x,1,1.167492000007769,None,26,0,104,0,,,,,279.29637041699607,,279.2862227919977,279.29637041699607,280.27852408299805,280.27852408299805,280.27852408299805,280.27852408299805,280.29462770797545,281.2847046669922,281.2847046669922,282.4626695420011,x,1,1.167492000007769,None,,,,,1,001,2024-11-18_22h11.11.707,Motor Sequence Learning,2024.2.4,None,2024-11-18 22h11.20.128953 +0530,
150,v,105,1,26,v,1,1.037543624988757,None,26,1,105,1,,,,,282.47301549999975,,282.46326629197574,282.47301549999975,283.4615992499748,283.4615992499748,283.4615992499748,283.4615992499748,283.4693033329968,284.46052774999407,284.46052774999407,285.5024460419954,v,1,1.037543624988757,None,,,,,1,001,2024-11-18_22h11.11.707,Motor Sequence Learning,2024.2.4,None,2024-11-18 22h11.20.128953 +0530,
50,c,106,2,26,c,1,0.9317628749995492,None,26,2,106,2,,,,,285.5125867079769,,285.50303283298854,285.5125867079769,286.51057545799995,286.51057545799995,286.51057545799995,286.51057545799995,286.52786608299357,287.501562999998,287.501562999998,288.43580337497406,c,1,0.9317628749995492,None,,,,,1,001,2024-11-18_22h11.11.707,Motor Sequence Learning,2024.2.4,None,2024-11-18 22h11.20.128953 +0530,
-150,z,107,3,26,z,1,0.6934180830139667,None,26,3,107,3,,,,,288.44681812499766,,288.43622604198754,288.44681812499766,289.42926416697446,289.42926416697446,289.42926416697446,289.42926416697446,289.4367096249771,290.43446037499234,290.43446037499234,291.1303703329759,z,1,0.6934180830139667,None,,,,,1,001,2024-11-18_22h11.11.707,Motor Sequence Learning,2024.2.4,None,2024-11-18 22h11.20.128953 +0530,
-50,x,108,0,27,x,1,0.33882883400656283,None,27,0,108,0,,,,,291.14015112500056,,291.1309991249873,291.14015112500056,292.12781037497916,292.12781037497916,292.12781037497916,292.12781037497916,292.1348427919729,293.12575324997306,293.12575324997306,293.4676779579895,x,1,0.33882883400656283,None,,,,,1,001,2024-11-18_22h11.11.707,Motor Sequence Learning,2024.2.4,None,2024-11-18 22h11.20.128953 +0530,
150,v,109,1,27,v,1,0.27915412501897663,None,27,1,109,1,,,,,293.47788062499603,,293.4680444999831,293.47788062499603,294.47726083299494,294.47726083299494,294.47726083299494,294.47726083299494,294.49442704199464,295.4610862080008,295.4610862080008,295.7465624999895,v,1,0.27915412501897663,None,,,,,1,001,2024-11-18_22h11.11.707,Motor Sequence Learning,2024.2.4,None,2024-11-18 22h11.20.128953 +0530,
50,c,110,2,27,c,1,0.27394470799481496,None,27,2,110,2,,,,,295.75612237499445,,295.7471876249765,295.75612237499445,296.7465087919845,296.7465087919845,296.7465087919845,296.7465087919845,296.76103012499516,297.74350537499413,297.74350537499413,298.0190144579974,c,1,0.27394470799481496,None,,,,,1,001,2024-11-18_22h11.11.707,Motor Sequence Learning,2024.2.4,None,2024-11-18 22h11.20.128953 +0530,
-150,z,111,3,27,z,1,0.35623391601257026,None,27,3,111,3,,,,,298.0294049999793,,298.0193554579746,298.0294049999793,299.01297987499856,299.01297987499856,299.01297987499856,299.01297987499856,299.0194892079744,300.0182310419914,300.0182310419914,300.37771691699163,z,1,0.35623391601257026,None,,,,,1,001,2024-11-18_22h11.11.707,Motor Sequence Learning,2024.2.4,None,2024-11-18 22h11.20.128953 +0530,
-50,x,112,0,28,x,1,0.34010970799135976,None,28,0,112,0,,,,,300.38940945797367,,300.3784322079737,300.38940945797367,301.3724267919897,301.3724267919897,301.3724267919897,301.3724267919897,301.379616582999,302.3783707919938,302.3783707919938,302.72870029197657,x,1,0.34010970799135976,None,,,,,1,001,2024-11-18_22h11.11.707,Motor Sequence Learning,2024.2.4,None,2024-11-18 22h11.20.128953 +0530,
150,v,113,1,28,v,1,0.2840489999798592,None,28,1,113,1,,,,,302.73817324999254,,302.7291122919996,302.73817324999254,303.7274262919964,303.7274262919964,303.7274262919964,303.7274262919964,303.7344618329953,304.72729079198325,304.72729079198325,305.0194382079935,v,1,0.2840489999798592,None,,,,,1,001,2024-11-18_22h11.11.707,Motor Sequence Learning,2024.2.4,None,2024-11-18 22h11.20.128953 +0530,
50,c,114,2,28,c,1,0.2995813330053352,None,28,2,114,2,,,,,305.0297684169782,,305.01979408299667,305.0297684169782,306.0143286669918,306.0143286669918,306.0143286669918,306.0143286669918,306.0275330419827,307.01713087499957,307.01713087499957,307.3188631669909,c,1,0.2995813330053352,None,,,,,1,001,2024-11-18_22h11.11.707,Motor Sequence Learning,2024.2.4,None,2024-11-18 22h11.20.128953 +0530,
-150,z,115,3,28,z,1,0.5657524160051253,None,28,3,115,3,,,,,307.32916162497713,,307.31921291697654,307.32916162497713,308.319282499986,308.319282499986,308.319282499986,308.319282499986,308.3257814999961,309.3175227920001,309.3175227920001,309.8850698749884,z,1,0.5657524160051253,None,,,,,1,001,2024-11-18_22h11.11.707,Motor Sequence Learning,2024.2.4,None,2024-11-18 22h11.20.128953 +0530,
-50,x,116,0,29,x,1,0.3299770419835113,None,29,0,116,0,,,,,309.8953593329934,,309.88540183298755,309.8953593329934,310.89382083297824,310.89382083297824,310.89382083297824,310.89382083297824,310.91041324997786,311.8848408329941,311.8848408329941,312.21887804198195,x,1,0.3299770419835113,None,,,,,1,001,2024-11-18_22h11.11.707,Motor Sequence Learning,2024.2.4,None,2024-11-18 22h11.20.128953 +0530,
150,v,117,1,29,v,1,0.3200863749952987,None,29,1,117,1,,,,,312.2291035419912,,312.2192022919771,312.2291035419912,313.21317366699805,313.21317366699805,313.21317366699805,313.21317366699805,313.2276662919903,314.21814770798665,314.21814770798665,314.5453447079926,v,1,0.3200863749952987,None,,,,,1,001,2024-11-18_22h11.11.707,Motor Sequence Learning,2024.2.4,None,2024-11-18 22h11.20.128953 +0530,
50,c,118,2,29,c,1,0.24259462501504458,None,29,2,118,2,,,,,314.5546979579958,,314.5456782919937,314.5546979579958,315.5389060000016,315.5389060000016,315.5389060000016,315.5389060000016,315.5460776669788,316.54295683300006,316.54295683300006,316.796278416994,c,1,0.24259462501504458,None,,,,,1,001,2024-11-18_22h11.11.707,Motor Sequence Learning,2024.2.4,None,2024-11-18 22h11.20.128953 +0530,
-150,z,119,3,29,z,1,0.26765416699345224,None,29,3,119,3,,,,,316.8064111249987,,316.7968730829889,316.8064111249987,317.78788287498173,317.78788287498173,317.78788287498173,317.78788287498173,317.81086716699065,318.79300158299156,318.79300158299156,319.06217341698357,z,1,0.26765416699345224,None,,,,,1,001,2024-11-18_22h11.11.707,Motor Sequence Learning,2024.2.4,None,2024-11-18 22h11.20.128953 +0530,
-50,x,120,0,30,x,1,0.2893465829838533,None,30,0,120,0,,,,,319.07143666699994,,319.0625654999749,319.07143666699994,320.06187958299415,320.06187958299415,320.06187958299415,320.06187958299415,320.0683760829852,321.0607422499743,321.0607422499743,321.3531485419953,x,1,0.2893465829838533,None,,,,,1,001,2024-11-18_22h11.11.707,Motor Sequence Learning,2024.2.4,None,2024-11-18 22h11.20.128953 +0530,
150,v,121,1,30,v,1,0.3014145000197459,None,30,1,121,1,,,,,321.36400333300116,,321.3538222919742,321.36400333300116,322.3516988749907,322.3516988749907,322.3516988749907,322.3516988749907,322.3591474169807,323.3513559579733,323.3513559579733,323.6626774169854,v,1,0.3014145000197459,None,,,,,1,001,2024-11-18_22h11.11.707,Motor Sequence Learning,2024.2.4,None,2024-11-18 22h11.20.128953 +0530,
50,c,122,2,30,c,1,0.2910229999979492,None,30,2,122,2,,,,,323.6729006249807,,323.6633026669733,323.6729006249807,324.6613424579846,324.6613424579846,324.6613424579846,324.6613424579846,324.6682007079944,325.6608299999789,325.6608299999789,325.9628222499741,c,1,0.2910229999979492,None,,,,,1,001,2024-11-18_22h11.11.707,Motor Sequence Learning,2024.2.4,None,2024-11-18 22h11.20.128953 +0530,
-150,z,123,3,30,z,1,0.46916966600110754,None,30,3,123,3,,,,,325.97277579197544,,325.96325470798183,325.97277579197544,326.9685501669883,326.9685501669883,326.9685501669883,326.9685501669883,326.9685501669883,327.958822332992,327.958822332992,328.43077033298323,z,1,0.46916966600110754,None,,,,,1,001,2024-11-18_22h11.11.707,Motor Sequence Learning,2024.2.4,None,2024-11-18 22h11.20.128953 +0530,
-50,x,124,0,31,x,1,0.518282833014382,None,31,0,124,0,,,,,328.4409017500002,,328.43142433298635,328.4409017500002,329.4436289999867,329.4436289999867,329.4436289999867,329.4436289999867,329.4507517499733,330.4272830830014,330.4272830830014,330.95033208298264,x,1,0.518282833014382,None,,,,,1,001,2024-11-18_22h11.11.707,Motor Sequence Learning,2024.2.4,None,2024-11-18 22h11.20.128953 +0530,
150,v,125,1,31,v,1,0.251012416993035,None,31,1,125,1,,,,,330.9607687079988,,330.95070262497757,330.9607687079988,331.9601702079817,331.9601702079817,331.9601702079817,331.9601702079817,331.9601702079817,332.9429364579846,332.9429364579846,333.1963667079981,v,1,0.251012416993035,None,,,,,1,001,2024-11-18_22h11.11.707,Motor Sequence Learning,2024.2.4,None,2024-11-18 22h11.20.128953 +0530,
50,c,126,2,31,c,1,0.31134841599850915,None,31,2,126,2,,,,,333.206071707973,,333.1969640829775,333.206071707973,334.1964404579776,334.1964404579776,334.1964404579776,334.1964404579776,334.20319304199074,335.1938053749909,335.1938053749909,335.51291870797286,c,1,0.31134841599850915,None,,,,,1,001,2024-11-18_22h11.11.707,Motor Sequence Learning,2024.2.4,None,2024-11-18 22h11.20.128953 +0530,
-150,z,127,3,31,z,1,0.2941147919918876,None,31,3,127,3,,,,,335.5246525419934,,335.513543707988,335.5246525419934,336.5101755829819,336.5101755829819,336.5101755829819,336.5101755829819,336.5169860419992,337.50884049999877,337.50884049999877,337.8127684999781,z,1,0.2941147919918876,None,,,,,1,001,2024-11-18_22h11.11.707,Motor Sequence Learning,2024.2.4,None,2024-11-18 22h11.20.128953 +0530,
-50,x,128,0,32,x,1,0.28991637501167133,None,32,0,128,0,,,,,337.8220257499779,,337.813195041992,337.8220257499779,338.81241329197655,338.81241329197655,338.81241329197655,338.81241329197655,338.81937516698963,339.8095737079857,339.8095737079857,340.1010553749802,x,1,0.28991637501167133,None,,,,,1,001,2024-11-18_22h11.11.707,Motor Sequence Learning,2024.2.4,None,2024-11-18 22h11.20.128953 +0530,
150,v,129,1,32,v,1,0.26923795900074765,None,32,1,129,1,,,,,340.11159737498383,,340.1014341249829,340.11159737498383,341.1101585419965,341.1101585419965,341.1101585419965,341.1101585419965,341.1268950419908,342.09343408298446,342.09343408298446,342.36818541699904,v,1,0.26923795900074765,None,,,,,1,001,2024-11-18_22h11.11.707,Motor Sequence Learning,2024.2.4,None,2024-11-18 22h11.20.128953 +0530,
50,c,130,2,32,c,1,0.2970096250064671,None,32,2,130,2,,,,,342.3783591669926,,342.36853983299807,342.3783591669926,343.36828370799776,343.36828370799776,343.36828370799776,343.36828370799776,343.3753869579814,344.36670008298825,344.36670008298825,344.6678587499773,c,1,0.2970096250064671,None,,,,,1,001,2024-11-18_22h11.11.707,Motor Sequence Learning,2024.2.4,None,2024-11-18 22h11.20.128953 +0530,
-150,z,131,3,32,z,1,0.3032023750129156,None,32,3,131,3,,,,,344.67814933299087,,344.66818708297797,344.67814933299087,345.661478916998,345.661478916998,345.661478916998,345.661478916998,345.6679457919963,346.65881191697554,346.65881191697554,346.96951945798355,z,1,0.3032023750129156,None,,,,,1,001,2024-11-18_22h11.11.707,Motor Sequence Learning,2024.2.4,None,2024-11-18 22h11.20.128953 +0530,
-50,x,132,0,33,x,1,0.3264856660098303,None,33,0,132,0,,,,,346.9936359579733,,346.97014120797394,346.9936359579733,347.96223029197427,347.96223029197427,347.96223029197427,347.96223029197427,347.99398570798803,348.9676679580007,348.9676679580007,349.29680070799077,x,1,0.3264856660098303,None,,,,,1,001,2024-11-18_22h11.11.707,Motor Sequence Learning,2024.2.4,None,2024-11-18 22h11.20.128953 +0530,
150,v,133,1,33,v,1,0.33738341700518504,None,33,1,133,1,,,,,349.3063222919882,,349.2972570829734,349.3063222919882,350.2953594579885,350.2953594579885,350.2953594579885,350.2953594579885,350.30256079198443,351.29352949999156,351.29352949999156,351.6344504169829,v,1,0.33738341700518504,None,,,,,1,001,2024-11-18_22h11.11.707,Motor Sequence Learning,2024.2.4,None,2024-11-18 22h11.20.128953 +0530,
50,c,134,2,33,c,1,0.3171641249791719,None,33,2,134,2,,,,,351.6453585419804,,351.6350384579855,351.6453585419804,352.6298676249862,352.6298676249862,352.6298676249862,352.6298676249862,352.6363317919895,353.6344190829841,353.6344190829841,353.96230929199373,c,1,0.3171641249791719,None,,,,,1,001,2024-11-18_22h11.11.707,Motor Sequence Learning,2024.2.4,None,2024-11-18 22h11.20.128953 +0530,
-150,z,135,3,33,z,1,0.43859583299490623,None,33,3,135,3,,,,,353.9711589999788,,353.9626792499912,353.9711589999788,354.9554132919875,354.9554132919875,354.9554132919875,354.9554132919875,354.9625329169794,355.958703124983,355.958703124983,356.4017892499978,z,1,0.43859583299490623,None,,,,,1,001,2024-11-18_22h11.11.707,Motor Sequence Learning,2024.2.4,None,2024-11-18 22h11.20.128953 +0530,
-50,x,136,0,34,x,1,0.3500016249890905,None,34,0,136,0,,,,,356.4119832919969,,356.4021364999935,356.4119832919969,357.40251845799503,357.40251845799503,357.40251845799503,357.40251845799503,357.40956795797683,358.4010204579972,358.4010204579972,358.761475916981,x,1,0.3500016249890905,None,,,,,1,001,2024-11-18_22h11.11.707,Motor Sequence Learning,2024.2.4,None,2024-11-18 22h11.20.128953 +0530,
150,v,137,1,34,v,1,0.3901918749907054,None,34,1,137,1,,,,,358.7712438329763,,358.7618244579935,358.7712438329763,359.7602311669907,359.7602311669907,359.7602311669907,359.7602311669907,359.76676199998474,360.75999041699106,360.75999041699106,361.16259141699993,v,1,0.3901918749907054,None,,,,,1,001,2024-11-18_22h11.11.707,Motor Sequence Learning,2024.2.4,None,2024-11-18 22h11.20.128953 +0530,
50,c,138,2,34,c,1,0.27902350001386367,None,34,2,138,2,,,,,361.1719627499988,,361.16294041697984,361.1719627499988,362.16261762499926,362.16261762499926,362.16261762499926,362.16261762499926,362.177128499985,363.1586625419732,363.1586625419732,363.4451359169907,c,1,0.27902350001386367,None,,,,,1,001,2024-11-18_22h11.11.707,Motor Sequence Learning,2024.2.4,None,2024-11-18 22h11.20.128953 +0530,
-150,z,139,3,34,z,1,0.25183008299791254,None,34,3,139,3,,,,,363.4543506249902,,363.44546037499094,363.4543506249902,364.44521929198527,364.44521929198527,364.44521929198527,364.44521929198527,364.45217874998343,365.4437147079734,365.4437147079734,365.7019948749803,z,1,0.25183008299791254,None,,,,,1,001,2024-11-18_22h11.11.707,Motor Sequence Learning,2024.2.4,None,2024-11-18 22h11.20.128953 +0530,
-50,x,140,0,35,x,1,0.3679543340113014,None,35,0,140,0,,,,,365.7121834169957,,365.7023349579831,365.7121834169957,366.7022586669773,366.7022586669773,366.7022586669773,366.7022586669773,366.70886699997936,367.70098479199805,367.70098479199805,368.078541416995,x,1,0.3679543340113014,None,,,,,1,001,2024-11-18_22h11.11.707,Motor Sequence Learning,2024.2.4,None,2024-11-18 22h11.20.128953 +0530,
150,v,141,1,35,v,1,0.2850564160034992,None,35,1,141,1,,,,,368.08783999999287,,368.079171874997,368.08783999999287,369.07825354198576,369.07825354198576,369.07825354198576,369.07825354198576,369.0854131669912,370.0759423329728,370.0759423329728,370.36392854197766,v,1,0.2850564160034992,None,,,,,1,001,2024-11-18_22h11.11.707,Motor Sequence Learning,2024.2.4,None,2024-11-18 22h11.20.128953 +0530,
50,c,142,2,35,c,1,0.28807929100003093,None,35,2,142,2,,,,,370.37339745799545,,370.3642890829942,370.37339745799545,371.36035795797943,371.36035795797943,371.36035795797943,371.36035795797943,371.3673896249966,372.3598351669789,372.3598351669789,372.6499095420004,c,1,0.28807929100003093,None,,,,,1,001,2024-11-18_22h11.11.707,Motor Sequence Learning,2024.2.4,None,2024-11-18 22h11.20.128953 +0530,
-150,z,143,3,35,z,1,0.35407033300725743,None,35,3,143,3,,,,,372.65959579197806,,372.65021979197627,372.65959579197806,373.6472210829961,373.6472210829961,373.6472210829961,373.6472210829961,373.6604703749763,374.6418247919937,374.6418247919937,375.00281283300137,z,1,0.35407033300725743,None,,,,,1,001,2024-11-18_22h11.11.707,Motor Sequence Learning,2024.2.4,None,2024-11-18 22h11.20.128953 +0530,
-50,x,144,0,36,x,1,0.34733108401997015,None,36,0,144,0,,,,,375.01424349998706,,375.00341866698,375.01424349998706,375.9956857499783,375.9956857499783,375.9956857499783,375.9956857499783,376.0118767079839,377.00048304197844,377.00048304197844,377.3517728750012,x,1,0.34733108401997015,None,,,,,1,001,2024-11-18_22h11.11.707,Motor Sequence Learning,2024.2.4,None,2024-11-18 22h11.20.128953 +0530,
150,v,145,1,36,v,1,0.3883718340075575,None,36,1,145,1,,,,,377.3619063749793,,377.3521147919819,377.3619063749793,378.3463858749892,378.3463858749892,378.3463858749892,378.3463858749892,378.35286495799664,379.35091862498666,379.35091862498666,379.74455474998103,v,1,0.3883718340075575,None,,,,,1,001,2024-11-18_22h11.11.707,Motor Sequence Learning,2024.2.4,None,2024-11-18 22h11.20.128953 +0530,
50,c,146,2,36,c,1,0.2731087499996647,None,36,2,146,2,,,,,379.7539007079904,,379.74488941699383,379.7539007079904,380.7421142499952,380.7421142499952,380.7421142499952,380.7421142499952,380.7489695829863,381.74366479198216,381.74366479198216,382.01815741698374,c,1,0.2731087499996647,None,,,,,1,001,2024-11-18_22h11.11.707,Motor Sequence Learning,2024.2.4,None,2024-11-18 22h11.20.128953 +0530,
-150,z,147,3,36,z,1,0.32584429197595455,None,36,3,147,3,,,,,382.0264322919829,,382.0184928329836,382.0264322919829,383.0126420829911,383.0126420829911,383.0126420829911,383.0126420829911,383.0191329579975,384.01716616697377,384.01716616697377,384.3454279579746,z,1,0.32584429197595455,None,,,,,1,001,2024-11-18_22h11.11.707,Motor Sequence Learning,2024.2.4,None,2024-11-18 22h11.20.128953 +0530,
-50,x,148,0,37,x,1,0.2852312090108171,None,37,0,148,0,,,,,384.35489237497677,,384.34595308298594,384.35489237497677,385.3384461669775,385.3384461669775,385.3384461669775,385.3384461669775,385.3456649579748,386.3418120419956,386.3418120419956,386.63419212499866,x,1,0.2852312090108171,None,,,,,1,001,2024-11-18_22h11.11.707,Motor Sequence Learning,2024.2.4,None,2024-11-18 22h11.20.128953 +0530,
150,v,149,1,37,v,1,0.30379016598453745,None,37,1,149,1,,,,,386.6442923749855,,386.6345121249906,386.6442923749855,387.62789383297786,387.62789383297786,387.62789383297786,387.62789383297786,387.63465720799286,388.6340108329896,388.6340108329896,388.944563291996,v,1,0.30379016598453745,None,,,,,1,001,2024-11-18_22h11.11.707,Motor Sequence Learning,2024.2.4,None,2024-11-18 22h11.20.128953 +0530,
50,c,150,2,37,c,1,0.26828554199892096,None,37,2,150,2,,,,,388.9535340000002,,388.94483549997676,388.9535340000002,389.94279891697806,389.94279891697806,389.94279891697806,389.94279891697806,389.95003624999663,390.94170841699815,390.94170841699815,391.2118736669945,c,1,0.26828554199892096,None,,,,,1,001,2024-11-18_22h11.11.707,Motor Sequence Learning,2024.2.4,None,2024-11-18 22h11.20.128953 +0530,
-150,z,151,3,37,z,1,0.3041902920231223,None,37,3,151,3,,,,,391.2215808329929,,391.21231037497637,391.2215808329929,392.2113564169849,392.2113564169849,392.2113564169849,392.2113564169849,392.2186926249997,393.2083362499834,393.2083362499834,393.5183854579809,z,1,0.3041902920231223,None,,,,,1,001,2024-11-18_22h11.11.707,Motor Sequence Learning,2024.2.4,None,2024-11-18 22h11.20.128953 +0530,
-50,x,152,0,38,x,1,0.05319233302725479,None,38,0,152,0,,,,,393.52914266698644,,393.5187942919729,393.52914266698644,394.5264131669828,394.5264131669828,394.5264131669828,394.5264131669828,394.54318895799224,395.5174217079766,395.5174217079766,395.5793204579968,x,1,0.05319233302725479,None,,,,,1,001,2024-11-18_22h11.11.707,Motor Sequence Learning,2024.2.4,None,2024-11-18 22h11.20.128953 +0530,
150,v,153,1,38,v,1,0.3064056670118589,None,38,1,153,1,,,,,395.59096766699804,,395.57998395798495,395.59096766699804,396.576428957982,396.576428957982,396.576428957982,396.576428957982,396.58350541698746,397.5760194999748,397.5760194999748,397.88511108298553,v,1,0.3064056670118589,None,,,,,1,001,2024-11-18_22h11.11.707,Motor Sequence Learning,2024.2.4,None,2024-11-18 22h11.20.128953 +0530,
50,c,154,2,38,c,1,0.2750291249831207,None,38,2,154,2,,,,,397.89562233298784,,397.8855242499849,397.89562233298784,398.8799614579766,398.8799614579766,398.8799614579766,398.8799614579766,398.89337537498795,399.88439616697724,399.88439616697724,400.16201737499796,c,1,0.2750291249831207,None,,,,,1,001,2024-11-18_22h11.11.707,Motor Sequence Learning,2024.2.4,None,2024-11-18 22h11.20.128953 +0530,
-150,z,155,3,38,z,1,0.3073301250115037,None,38,3,155,3,,,,,400.1717739169835,,400.16242479198263,400.1717739169835,401.1544694999757,401.1544694999757,401.1544694999757,401.1544694999757,401.16195416697883,402.15993841699674,402.15993841699674,402.4777872499835,z,1,0.3073301250115037,None,,,,,1,001,2024-11-18_22h11.11.707,Motor Sequence Learning,2024.2.4,None,2024-11-18 22h11.20.128953 +0530,
-50,x,156,0,39,x,1,0.2713121249980759,None,39,0,156,0,,,,,402.4874094580009,,402.4783615419874,402.4874094580009,403.4702545829932,403.4702545829932,403.4702545829932,403.4702545829932,403.4930544999952,404.47668516699923,404.47668516699923,404.7526980419934,x,1,0.2713121249980759,None,,,,,1,001,2024-11-18_22h11.11.707,Motor Sequence Learning,2024.2.4,None,2024-11-18 22h11.20.128953 +0530,
150,v,157,1,39,v,1,0.2851844580145553,None,39,1,157,1,,,,,404.7633804169891,,404.753319749987,404.7633804169891,405.75313654198544,405.75313654198544,405.75313654198544,405.75313654198544,405.76036837499123,406.75038995797513,406.75038995797513,407.04457083297893,v,1,0.2851844580145553,None,,,,,1,001,2024-11-18_22h11.11.707,Motor Sequence Learning,2024.2.4,None,2024-11-18 22h11.20.128953 +0530,
50,c,158,2,39,c,1,0.2680658750177827,None,39,2,158,2,,,,,407.0539731249737,,407.04493912498583,407.0539731249737,408.0370979169966,408.0370979169966,408.0370979169966,408.0370979169966,408.059616582992,409.0429184169916,409.0429184169916,409.3163615829835,c,1,0.2680658750177827,None,,,,,1,001,2024-11-18_22h11.11.707,Motor Sequence Learning,2024.2.4,None,2024-11-18 22h11.20.128953 +0530,
-150,z,159,3,39,z,1,0.2887866669916548,None,39,3,159,3,,,,,409.3269368749752,,409.31673866699566,409.3269368749752,410.3101059579931,410.3101059579931,410.3101059579931,410.3101059579931,410.3169067919953,411.3094385419972,411.3094385419972,411.60112199999276,z,1,0.2887866669916548,None,,,,,1,001,2024-11-18_22h11.11.707,Motor Sequence Learning,2024.2.4,None,2024-11-18 22h11.20.128953 +0530,
-50,x,160,0,40,x,1,0.31411437498172745,None,40,0,160,0,,,,,411.61129199998686,,411.6014449169743,411.61129199998686,412.5931387919991,412.5931387919991,412.5931387919991,412.5931387919991,412.6090667079843,413.60055966698565,413.60055966698565,413.91856624998036,x,1,0.31411437498172745,None,,,,,1,001,2024-11-18_22h11.11.707,Motor Sequence Learning,2024.2.4,None,2024-11-18 22h11.20.128953 +0530,
150,v,161,1,40,v,1,0.2713442920066882,None,40,1,161,1,,,,,413.9289616669994,,413.9191346669977,413.9289616669994,414.91334849997656,414.91334849997656,414.91334849997656,414.91334849997656,414.92671758297365,415.91705129199545,415.91705129199545,416.1952831669769,v,1,0.2713442920066882,None,,,,,1,001,2024-11-18_22h11.11.707,Motor Sequence Learning,2024.2.4,None,2024-11-18 22h11.20.128953 +0530,
50,c,162,2,40,c,1,0.26816549999057315,None,40,2,162,2,,,,,416.2049182499759,,416.1959205829771,416.2049182499759,417.18825924998964,417.18825924998964,417.18825924998964,417.18825924998964,417.19542962498963,418.19221675000153,418.19221675000153,418.4705467079766,c,1,0.26816549999057315,None,,,,,1,001,2024-11-18_22h11.11.707,Motor Sequence Learning,2024.2.4,None,2024-11-18 22h11.20.128953 +0530,
-150,z,163,3,40,z,1,0.3092416249855887,None,40,3,163,3,,,,,418.47873291699216,,418.4709201249934,418.47873291699216,419.4708663749916,419.4708663749916,419.4708663749916,419.4708663749916,419.4782217920001,420.46706620798795,420.46706620798795,420.77854316699086,z,1,0.3092416249855887,None,,,,,1,001,2024-11-18_22h11.11.707,Motor Sequence Learning,2024.2.4,None,2024-11-18 22h11.20.128953 +0530,
-50,x,164,0,41,x,1,0.2838705409958493,None,41,0,164,0,,,,,420.78811850000056,,420.77917033300037,420.78811850000056,421.7773488749808,421.7773488749808,421.7773488749808,421.7773488749808,421.78436245798366,422.7764727079775,422.7764727079775,423.06600708299084,x,1,0.2838705409958493,None,,,,,1,001,2024-11-18_22h11.11.707,Motor Sequence Learning,2024.2.4,None,2024-11-18 22h11.20.128953 +0530,
150,v,165,1,41,v,1,0.32917991699650884,None,41,1,165,1,,,,,423.07589316699887,,423.0663576669758,423.07589316699887,424.0617964580015,424.0617964580015,424.0617964580015,424.0617964580015,424.06831958299153,425.0589192920015,425.0589192920015,425.3949689999863,v,1,0.32917991699650884,None,,,,,1,001,2024-11-18_22h11.11.707,Motor Sequence Learning,2024.2.4,None,2024-11-18 22h11.20.128953 +0530,
50,c,166,2,41,c,1,0.29298879200359806,None,41,2,166,2,,,,,425.4047253749741,,425.3955543329939,425.4047253749741,426.3878564579936,426.3878564579936,426.3878564579936,426.3878564579936,426.39517883298686,427.3914020829834,427.3914020829834,427.6953144579893,c,1,0.29298879200359806,None,,,,,1,001,2024-11-18_22h11.11.707,Motor Sequence Learning,2024.2.4,None,2024-11-18 22h11.20.128953 +0530,
-150,z,167,3,41,z,1,0.271232583996607,None,41,3,167,3,,,,,427.70464099998935,,427.6956910829758,427.70464099998935,428.69369037498836,428.69369037498836,428.69369037498836,428.69369037498836,428.7008770829998,429.6930272919999,429.6930272919999,429.9661325829802,z,1,0.271232583996607,None,,,,,1,001,2024-11-18_22h11.11.707,Motor Sequence Learning,2024.2.4,None,2024-11-18 22h11.20.128953 +0530,
-50,x,168,0,42,x,1,0.0336392080062069,None,42,0,168,0,,,,,429.97662620799383,,429.96646933298325,429.97662620799383,430.96221120798145,430.96221120798145,430.96221120798145,430.96221120798145,430.97679091698956,431.9599452079856,431.9599452079856,431.99687195799197,x,1,0.0336392080062069,None,,,,,1,001,2024-11-18_22h11.11.707,Motor Sequence Learning,2024.2.4,None,2024-11-18 22h11.20.128953 +0530,
150,v,169,1,42,v,1,0.36895658299908973,None,42,1,169,1,,,,,432.0071058749745,,431.9975057079864,432.0071058749745,432.9937677499838,432.9937677499838,432.9937677499838,432.9937677499838,433.0003341669799,433.9913857919746,433.9913857919746,434.36846649998915,v,1,0.36895658299908973,None,,,,,1,001,2024-11-18_22h11.11.707,Motor Sequence Learning,2024.2.4,None,2024-11-18 22h11.20.128953 +0530,
50,c,170,2,42,c,1,0.24288345899549313,None,42,2,170,2,,,,,434.37830545799807,,434.3687774579739,434.37830545799807,435.3676347079745,435.3676347079745,435.3676347079745,435.3676347079745,435.37467262498103,436.3672436249908,436.3672436249908,436.61265070797526,c,1,0.24288345899549313,None,,,,,1,001,2024-11-18_22h11.11.707,Motor Sequence Learning,2024.2.4,None,2024-11-18 22h11.20.128953 +0530,
-150,z,171,3,42,z,1,0.3287493340030778,None,42,3,171,3,,,,,436.62213716699625,,436.6132109169848,436.62213716699625,437.6177026249934,437.6177026249934,437.6177026249934,437.6177026249934,437.6177026249934,438.609740874992,438.609740874992,438.9453204579768,z,1,0.3287493340030778,None,,,,,1,001,2024-11-18_22h11.11.707,Motor Sequence Learning,2024.2.4,None,2024-11-18 22h11.20.128953 +0530,
-50,x,172,0,43,x,1,0.21908183398772962,None,43,0,172,0,,,,,438.95476799999597,,438.9456917499774,438.95476799999597,439.94553341699066,439.94553341699066,439.94553341699066,439.94553341699066,439.9599529999832,440.941323749983,440.941323749983,441.17101316698245,x,1,0.21908183398772962,None,,,,,1,001,2024-11-18_22h11.11.707,Motor Sequence Learning,2024.2.4,None,2024-11-18 22h11.20.128953 +0530,
150,v,173,1,43,v,1,0.3641562499979045,None,43,1,173,1,,,,,441.1790558749926,,441.17128254199633,441.1790558749926,442.1697543329792,442.1697543329792,442.1697543329792,442.1697543329792,442.19274954198045,443.1674829169933,443.1674829169933,443.5339434579946,v,1,0.3641562499979045,None,,,,,1,001,2024-11-18_22h11.11.707,Motor Sequence Learning,2024.2.4,None,2024-11-18 22h11.20.128953 +0530,
50,c,174,2,43,c,1,0.2818256670143455,None,43,2,174,2,,,,,443.54397279198747,,443.5342509999755,443.54397279198747,444.5427391669946,444.5427391669946,444.5427391669946,444.5427391669946,444.56001516699325,445.52457812498324,445.52457812498324,445.8105077079963,c,1,0.2818256670143455,None,,,,,1,001,2024-11-18_22h11.11.707,Motor Sequence Learning,2024.2.4,None,2024-11-18 22h11.20.128953 +0530,
-150,z,175,3,43,z,1,0.29561416700016707,None,43,3,175,3,,,,,445.81966712497524,,445.81085266699665,445.81966712497524,446.8025870829879,446.8025870829879,446.8025870829879,446.8025870829879,446.81005654198816,447.80076620797627,447.80076620797627,448.10128958299174,z,1,0.29561416700016707,None,,,,,1,001,2024-11-18_22h11.11.707,Motor Sequence Learning,2024.2.4,None,2024-11-18 22h11.20.128953 +0530,
-50,x,176,0,44,x,1,0.28656675000092946,None,44,0,176,0,,,,,448.11114495797665,,448.10161916699144,448.11114495797665,449.0951892079902,449.0951892079902,449.0951892079902,449.0951892079902,449.1024042919744,450.09949420799967,450.09949420799967,450.39425399998436,x,1,0.28656675000092946,None,,,,,1,001,2024-11-18_22h11.11.707,Motor Sequence Learning,2024.2.4,None,2024-11-18 22h11.20.128953 +0530,
150,v,177,1,44,v,1,0.38278304200503044,None,44,1,177,1,,,,,450.40558916699956,,450.3946488329966,450.40558916699956,451.39485908299685,451.39485908299685,451.39485908299685,451.39485908299685,451.40180599997984,452.39372433300014,452.39372433300014,452.78407774999505,v,1,0.38278304200503044,None,,,,,1,001,2024-11-18_22h11.11.707,Motor Sequence Learning,2024.2.4,None,2024-11-18 22h11.20.128953 +0530,
50,c,178,2,44,c,1,0.2908388339856174,None,44,2,178,2,,,,,452.79431499997736,,452.7843809170008,452.79431499997736,453.77859174998594,453.77859174998594,453.77859174998594,453.77859174998594,453.7932692079921,454.7936335419945,454.7936335419945,455.09538566699484,c,1,0.2908388339856174,None,,,,,1,001,2024-11-18_22h11.11.707,Motor Sequence Learning,2024.2.4,None,2024-11-18 22h11.20.128953 +0530,
-150,z,179,3,44,z,1,0.3166429999982938,None,44,3,179,3,,,,,455.1075810829934,,455.0960264579917,455.1075810829934,456.0954366249789,456.0954366249789,456.0954366249789,456.0954366249789,456.1097876249987,457.0935206669965,457.0935206669965,457.4125546249852,z,1,0.3166429999982938,None,,,,,1,001,2024-11-18_22h11.11.707,Motor Sequence Learning,2024.2.4,None,2024-11-18 22h11.20.128953 +0530,
-50,x,180,0,45,x,1,0.30886137500056066,None,45,0,180,0,,,,,457.42270749999443,,457.41300312499516,457.42270749999443,458.4119962079858,458.4119962079858,458.4119962079858,458.4119962079858,458.4265338330006,459.4086546670005,459.4086546670005,459.7275598749984,x,1,0.30886137500056066,None,,,,,1,001,2024-11-18_22h11.11.707,Motor Sequence Learning,2024.2.4,None,2024-11-18 22h11.20.128953 +0530,
150,v,181,1,45,v,1,0.29518008400918916,None,45,1,181,1,,,,,459.73739837500034,,459.72795512498124,459.73739837500034,460.727017666999,460.727017666999,460.727017666999,460.727017666999,460.73390329198446,461.72609899999225,461.72609899999225,462.0276704999851,v,1,0.29518008400918916,None,,,,,1,001,2024-11-18_22h11.11.707,Motor Sequence Learning,2024.2.4,None,2024-11-18 22h11.20.128953 +0530,
50,c,182,2,45,c,1,0.2579335829941556,None,45,2,182,2,,,,,462.03731508299825,,462.02824399998644,462.03731508299825,463.01997779199155,463.01997779199155,463.01997779199155,463.01997779199155,463.04252579199965,464.02448970798287,464.02448970798287,464.28423566700076,c,1,0.2579335829941556,None,,,,,1,001,2024-11-18_22h11.11.707,Motor Sequence Learning,2024.2.4,None,2024-11-18 22h11.20.128953 +0530,
-150,z,183,3,45,z,1,0.27171983299194835,None,45,3,183,3,,,,,464.2923942079942,,464.28465770799085,464.2923942079942,465.2766711669974,465.2766711669974,465.2766711669974,465.2766711669974,465.28340929199476,466.28355024999473,466.28355024999473,466.5618414999917,z,1,0.27171983299194835,None,,,,,1,001,2024-11-18_22h11.11.707,Motor Sequence Learning,2024.2.4,None,2024-11-18 22h11.20.128953 +0530,
-50,x,184,0,46,x,1,0.29001649998826906,None,46,0,184,0,,,,,466.57141595799476,,466.5622178329795,466.57141595799476,467.561833957996,467.561833957996,467.561833957996,467.561833957996,467.56923545798054,468.5595407499932,468.5595407499932,468.8513820419903,x,1,0.29001649998826906,None,,,,,1,001,2024-11-18_22h11.11.707,Motor Sequence Learning,2024.2.4,None,2024-11-18 22h11.20.128953 +0530,
150,v,185,1,46,v,1,0.2608099589997437,None,46,1,185,1,,,,,468.86160545799066,,468.8517139579926,468.86160545799066,469.84640341697377,469.84640341697377,469.84640341697377,469.84640341697377,469.8595689579961,470.85055758297676,470.85055758297676,471.1181476669735,v,1,0.2608099589997437,None,,,,,1,001,2024-11-18_22h11.11.707,Motor Sequence Learning,2024.2.4,None,2024-11-18 22h11.20.128953 +0530,
50,c,186,2,46,c,1,0.3120090829906985,None,46,2,186,2,,,,,471.1288672499941,,471.1187650829961,471.1288672499941,472.1258397499914,472.1258397499914,472.1258397499914,472.1258397499914,472.1425401669985,473.11676291699405,473.11676291699405,473.4449951669958,c,1,0.3120090829906985,None,,,,,1,001,2024-11-18_22h11.11.707,Motor Sequence Learning,2024.2.4,None,2024-11-18 22h11.20.128953 +0530,
-150,z,187,3,46,z,1,0.27516620900132693,None,46,3,187,3,,,,,473.4551412919827,,473.4456207919866,473.4551412919827,474.44443233299535,474.44443233299535,474.44443233299535,474.44443233299535,474.45118962498964,475.44105062499875,475.44105062499875,475.7279204169754,z,1,0.27516620900132693,None,,,,,1,001,2024-11-18_22h11.11.707,Motor Sequence Learning,2024.2.4,None,2024-11-18 22h11.20.128953 +0530,
-50,x,188,0,47,x,1,0.6906894579879008,None,47,0,188,0,,,,,475.73755108297337,,475.72851337498287,475.73755108297337,476.7210723749886,476.7210723749886,476.7210723749886,476.7210723749886,476.7282111669774,477.7251489170012,477.7251489170012,478.4172422919946,x,1,0.6906894579879008,None,,,,,1,001,2024-11-18_22h11.11.707,Motor Sequence Learning,2024.2.4,None,2024-11-18 22h11.20.128953 +0530,
150,v,189,1,47,v,1,0.3428005839814432,None,47,1,189,1,,,,,478.42534729198087,,478.4175941669964,478.42534729198087,479.41148145799525,479.41148145799525,479.41148145799525,479.41148145799525,479.41802358298446,480.4167853749823,480.4167853749823,480.76538695799536,v,1,0.3428005839814432,None,,,,,1,001,2024-11-18_22h11.11.707,Motor Sequence Learning,2024.2.4,None,2024-11-18 22h11.20.128953 +0530,
50,c,190,2,47,c,1,0.33445087500149384,None,47,2,190,2,,,,,480.77525995799806,,480.7657082079968,480.77525995799806,481.7591542500013,481.7591542500013,481.7591542500013,481.7591542500013,481.76618987499387,482.75943325000117,482.75943325000117,483.1004392920004,c,1,0.33445087500149384,None,,,,,1,001,2024-11-18_22h11.11.707,Motor Sequence Learning,2024.2.4,None,2024-11-18 22h11.20.128953 +0530,
-150,z,191,3,47,z,1,0.2991398330195807,None,47,3,191,3,,,,,483.11056162498426,,483.10078629199415,483.11056162498426,484.0925012919761,484.0925012919761,484.0925012919761,484.0925012919761,484.10794799998985,485.09985470797983,485.09985470797983,485.41197137499694,z,1,0.2991398330195807,None,,,,,1,001,2024-11-18_22h11.11.707,Motor Sequence Learning,2024.2.4,None,2024-11-18 22h11.20.128953 +0530,
-50,x,192,0,48,x,1,0.5878376250038855,None,48,0,192,0,,,,,485.4260227919731,,485.41256462497404,485.4260227919731,486.40469270799076,486.40469270799076,486.40469270799076,486.40469270799076,486.42607883299934,487.4089827919961,487.4089827919961,488.00056020799093,x,1,0.5878376250038855,None,,,,,1,001,2024-11-18_22h11.11.707,Motor Sequence Learning,2024.2.4,None,2024-11-18 22h11.20.128953 +0530,
150,v,193,1,48,v,1,0.12585787501302548,None,48,1,193,1,,,,,488.01078558299923,,488.0009149169782,488.01078558299923,488.9935405829747,488.9935405829747,488.9935405829747,488.9935405829747,489.00042749999557,490.0002684579813,490.0002684579813,490.1288816249871,v,1,0.12585787501302548,None,,,,,1,001,2024-11-18_22h11.11.707,Motor Sequence Learning,2024.2.4,None,2024-11-18 22h11.20.128953 +0530,
50,c,194,2,48,c,1,0.3108412080036942,None,48,2,194,2,,,,,490.139022791991,,490.12953079197905,490.139022791991,491.1265231669822,491.1265231669822,491.1265231669822,491.1265231669822,491.13351787498686,492.124258041993,492.124258041993,492.44391449997784,c,1,0.3108412080036942,None,,,,,1,001,2024-11-18_22h11.11.707,Motor Sequence Learning,2024.2.4,None,2024-11-18 22h11.20.128953 +0530,
-150,z,195,3,48,z,1,0.7839960420096759,None,48,3,195,3,,,,,492.45331020798767,,492.4442744999833,492.45331020798767,493.44461249999586,493.44461249999586,493.44461249999586,493.44461249999586,493.4511585419823,494.44260812498396,494.44260812498396,495.2379719999735,z,1,0.7839960420096759,None,,,,,1,001,2024-11-18_22h11.11.707,Motor Sequence Learning,2024.2.4,None,2024-11-18 22h11.20.128953 +0530,
-50,x,196,0,49,x,1,0.2700035420130007,None,49,0,196,0,,,,,495.2590782499756,,495.23827191698365,495.2590782499756,496.2360167919833,496.2360167919833,496.2360167919833,496.2360167919833,496.2594968749909,497.2330734169809,497.2330734169809,497.5114820000017,x,1,0.2700035420130007,None,,,,,1,001,2024-11-18_22h11.11.707,Motor Sequence Learning,2024.2.4,None,2024-11-18 22h11.20.128953 +0530,
150,v,197,1,49,v,1,0.3391204589861445,None,49,1,197,1,,,,,497.52052941700094,,497.5118073329795,497.52052941700094,498.51092849997804,498.51092849997804,498.51092849997804,498.51092849997804,498.51743675000034,499.50756204198115,499.50756204198115,499.8507957919792,v,1,0.3391204589861445,None,,,,,1,001,2024-11-18_22h11.11.707,Motor Sequence Learning,2024.2.4,None,2024-11-18 22h11.20.128953 +0530,
50,c,198,2,49,c,1,0.29358345799846575,None,49,2,198,2,,,,,499.86076329197385,,499.8511128749815,499.86076329197385,500.8590284579841,500.8590284579841,500.8590284579841,500.8590284579841,500.8757067080005,501.8502517499728,501.8502517499728,502.1496412080014,c,1,0.29358345799846575,None,,,,,1,001,2024-11-18_22h11.11.707,Motor Sequence Learning,2024.2.4,None,2024-11-18 22h11.20.128953 +0530,
-150,z,199,3,49,z,1,0.2833702079951763,None,49,3,199,3,,,,,502.1594851669797,,502.1499741250009,502.1594851669797,503.1449472499953,503.1449472499953,503.1449472499953,503.1449472499953,503.15987312499783,504.142682457983,504.142682457983,504.4284741249867,z,1,0.2833702079951763,None,,,,,1,001,2024-11-18_22h11.11.707,Motor Sequence Learning,2024.2.4,None,2024-11-18 22h11.20.128953 +0530,
50,c,0,0,0,c,1,1.1309849160024896,None,,,,,0,0,0,2,504.54200270798174,,504.533927499986,504.54200270798174,505.4333313749812,505.4333313749812,505.4333313749812,505.4333313749812,505.535040207993,506.42590999999084,506.42590999999084,507.5617754169798,,,,,c,1,1.1309849160024896,None,1,001,2024-11-18_22h11.11.707,Motor Sequence Learning,2024.2.4,None,2024-11-18 22h11.20.128953 +0530,
150,v,1,1,0,v,1,0.6520726669987198,None,,,,,0,1,1,1,507.57305799997994,,507.5623106669809,507.57305799997994,508.5598021670012,508.5598021670012,508.5598021670012,508.5598021670012,508.5667494579975,509.55753945797915,509.55753945797915,510.21191349998116,,,,,v,1,0.6520726669987198,None,1,001,2024-11-18_22h11.11.707,Motor Sequence Learning,2024.2.4,None,2024-11-18 22h11.20.128953 +0530,
-150,z,2,2,0,z,1,0.41178241700981744,None,,,,,0,2,2,3,510.22290549997706,,510.2125914579956,510.22290549997706,511.2076018329826,511.2076018329826,511.2076018329826,511.2076018329826,511.2150469579792,512.2073972499929,512.2073972499929,512.6270384999807,,,,,z,1,0.41178241700981744,None,1,001,2024-11-18_22h11.11.707,Motor Sequence Learning,2024.2.4,None,2024-11-18 22h11.20.128953 +0530,
-50,x,3,3,0,x,1,0.3507516250247136,None,,,,,0,3,3,0,512.636561249994,,512.6274381249968,512.636561249994,513.6201444579929,513.6201444579929,513.6201444579929,513.6201444579929,513.6279242079763,514.6252769169805,514.6252769169805,514.9777021249756,,,,,x,1,0.3507516250247136,None,1,001,2024-11-18_22h11.11.707,Motor Sequence Learning,2024.2.4,None,2024-11-18 22h11.20.128953 +0530,
-150,z,4,4,1,z,1,0.5687943329976406,None,,,,,1,4,4,3,514.984784249973,,514.9781717919977,514.984784249973,515.9764407079783,515.9764407079783,515.9764407079783,515.9764407079783,515.9764407079783,516.9742295829928,516.9742295829928,517.5540744579921,,,,,z,1,0.5687943329976406,None,1,001,2024-11-18_22h11.11.707,Motor Sequence Learning,2024.2.4,None,2024-11-18 22h11.20.128953 +0530,
150,v,5,5,1,v,1,0.5552810829831287,None,,,,,1,5,5,1,517.5750410420005,,517.5544037079962,517.5750410420005,518.5531032499857,518.5531032499857,518.5531032499857,518.5531032499857,518.5758644169837,519.5497106249968,519.5497106249968,520.1114369579882,,,,,v,1,0.5552810829831287,None,1,001,2024-11-18_22h11.11.707,Motor Sequence Learning,2024.2.4,None,2024-11-18 22h11.20.128953 +0530,
-50,x,6,6,1,x,1,0.5465905409946572,None,,,,,1,6,6,0,520.1211078329943,,520.1118069579825,520.1211078329943,521.1040374169825,521.1040374169825,521.1040374169825,521.1040374169825,521.1113328329811,522.108131749992,522.108131749992,522.6597399999737,,,,,x,1,0.5465905409946572,None,1,001,2024-11-18_22h11.11.707,Motor Sequence Learning,2024.2.4,None,2024-11-18 22h11.20.128953 +0530,
-150,z,7,7,2,z,1,0.560922834003577,None,,,,,2,7,7,3,522.6693079999823,,522.6600995829795,522.6693079999823,523.6532858749852,523.6532858749852,523.6532858749852,523.6532858749852,523.6753532079747,524.6496649579785,524.6496649579785,525.2283780829748,,,,,z,1,0.560922834003577,None,1,001,2024-11-18_22h11.11.707,Motor Sequence Learning,2024.2.4,None,2024-11-18 22h11.20.128953 +0530,
-150,z,8,8,3,z,1,0.6042874160048086,None,,,,,3,8,8,3,525.2424461669871,,525.2290166669991,525.2424461669871,526.226301082992,526.226301082992,526.226301082992,526.226301082992,526.233061499981,527.2239799579838,527.2239799579838,527.8301326249784,,,,,z,1,0.6042874160048086,None,1,001,2024-11-18_22h11.11.707,Motor Sequence Learning,2024.2.4,None,2024-11-18 22h11.20.128953 +0530,
-150,z,9,9,4,z,1,0.4278340000018943,None,,,,,4,9,9,3,527.8422756669752,,527.8305074999807,527.8422756669752,528.8263133750006,528.8263133750006,528.8263133750006,528.8263133750006,528.8332849169965,529.826423749997,529.826423749997,530.2606635830016,,,,,z,1,0.4278340000018943,None,1,001,2024-11-18_22h11.11.707,Motor Sequence Learning,2024.2.4,None,2024-11-18 22h11.20.128953 +0530,
50,c,10,10,1,c,1,1.0227131250139792,None,,,,,1,10,10,2,530.2698785419925,,530.2610317919753,530.2698785419925,531.2598215419857,531.2598215419857,531.2598215419857,531.2598215419857,531.2667603750015,532.2573110829981,532.2573110829981,533.2826739999873,,,,,c,1,1.0227131250139792,None,1,001,2024-11-18_22h11.11.707,Motor Sequence Learning,2024.2.4,None,2024-11-18 22h11.20.128953 +0530,
150,v,11,11,2,v,1,0.8419203750090674,None,,,,,2,11,11,1,533.2927612079948,,533.2830149169895,533.2927612079948,534.2776956669986,534.2776956669986,534.2776956669986,534.2776956669986,534.2846212079749,535.2756627079798,535.2756627079798,536.1270167079929,,,,,v,1,0.8419203750090674,None,1,001,2024-11-18_22h11.11.707,Motor Sequence Learning,2024.2.4,None,2024-11-18 22h11.20.128953 +0530,
50,c,12,12,2,c,1,0.7413468339946121,None,,,,,2,12,12,2,536.1367033329734,,536.1273774169968,536.1367033329734,537.126187582995,537.126187582995,537.126187582995,537.126187582995,537.1331574579817,538.1259012499941,538.1259012499941,538.876003124984,,,,,c,1,0.7413468339946121,None,1,001,2024-11-18_22h11.11.707,Motor Sequence Learning,2024.2.4,None,2024-11-18 22h11.20.128953 +0530,
-50,x,13,13,2,x,1,1.1374091249890625,None,,,,,2,13,13,0,538.8853772500006,,538.8763812079851,538.8853772500006,539.8752510829945,539.8752510829945,539.8752510829945,539.8752510829945,539.8824936249875,540.8664710419835,540.8664710419835,542.0110732499743,,,,,x,1,1.1374091249890625,None,1,001,2024-11-18_22h11.11.707,Motor Sequence Learning,2024.2.4,None,2024-11-18 22h11.20.128953 +0530,
-150,z,14,14,5,z,1,0.9168080829840619,None,,,,,5,14,14,3,542.0208094169793,,542.0116524169862,542.0208094169793,543.0107833749789,543.0107833749789,543.0107833749789,543.0107833749789,543.0172982499935,544.0258323329908,544.0258323329908,544.9456399999908,,,,,z,1,0.9168080829840619,None,1,001,2024-11-18_22h11.11.707,Motor Sequence Learning,2024.2.4,None,2024-11-18 22h11.20.128953 +0530,
-150,z,15,15,6,z,1,0.40032937499927357,None,,,,,6,15,15,3,544.9553582079825,,544.9461169579881,544.9553582079825,545.9441813750018,545.9441813750018,545.9441813750018,545.9441813750018,545.9514119999949,546.942205749976,546.942205749976,547.3484016669972,,,,,z,1,0.40032937499927357,None,1,001,2024-11-18_22h11.11.707,Motor Sequence Learning,2024.2.4,None,2024-11-18 22h11.20.128953 +0530,
50,c,16,16,3,c,1,1.2055282919900492,None,,,,,3,16,16,2,547.3585511249839,,547.3487474999856,547.3585511249839,548.3428480829753,548.3428480829753,548.3428480829753,548.3428480829753,548.3494313329866,549.3420440419868,549.3420440419868,550.5499928749923,,,,,c,1,1.2055282919900492,None,1,001,2024-11-18_22h11.11.707,Motor Sequence Learning,2024.2.4,None,2024-11-18 22h11.20.128953 +0530,
-150,z,17,17,7,z,1,0.765324750012951,None,,,,,7,17,17,3,550.5605820419732,,550.5503682499984,550.5605820419732,551.5441372919886,551.5441372919886,551.5441372919886,551.5441372919886,551.5510674169927,552.5500626249996,552.5500626249996,553.3168579170015,,,,,z,1,0.765324750012951,None,1,001,2024-11-18_22h11.11.707,Motor Sequence Learning,2024.2.4,None,2024-11-18 22h11.20.128953 +0530,
150,v,18,18,3,v,1,0.7815840420080349,None,,,,,3,18,18,1,553.3248474579887,,553.3172444579832,553.3248474579887,554.3114095419878,554.3114095419878,554.3114095419878,554.3114095419878,554.3179104169831,555.3162173749879,555.3162173749879,556.0992184579954,,,,,v,1,0.7815840420080349,None,1,001,2024-11-18_22h11.11.707,Motor Sequence Learning,2024.2.4,None,2024-11-18 22h11.20.128953 +0530,
50,c,19,19,4,c,1,0.7341789999918547,None,,,,,4,19,19,2,556.1070221669797,,556.0995820829994,556.1070221669797,557.0955064579903,557.0955064579903,557.0955064579903,557.0955064579903,557.1082312919898,558.0921724169748,558.0921724169748,558.8319565829879,,,,,c,1,0.7341789999918547,None,1,001,2024-11-18_22h11.11.707,Motor Sequence Learning,2024.2.4,None,2024-11-18 22h11.20.128953 +0530,
-50,x,20,20,3,x,1,0.5091896249796264,None,,,,,3,20,20,0,558.8428334999771,,558.832363458001,558.8428334999771,559.8260054999846,559.8260054999846,559.8260054999846,559.8260054999846,559.8331874999858,560.8253111249942,560.8253111249942,561.3441894579737,,,,,x,1,0.5091896249796264,None,1,001,2024-11-18_22h11.11.707,Motor Sequence Learning,2024.2.4,None,2024-11-18 22h11.20.128953 +0530,
150,v,21,21,4,v,1,0.9067714589764364,None,,,,,4,21,21,1,561.3546033749881,,561.3447766669851,561.3546033749881,562.3439154169755,562.3439154169755,562.3439154169755,562.3439154169755,562.351090207987,563.3420990829763,563.3420990829763,564.2503879169817,,,,,v,1,0.9067714589764364,None,1,001,2024-11-18_22h11.11.707,Motor Sequence Learning,2024.2.4,None,2024-11-18 22h11.20.128953 +0530,
-150,z,22,22,8,z,1,0.7335332499933429,None,,,,,8,22,22,3,564.2609907079895,,564.2507773749821,564.2609907079895,565.2445882920001,565.2445882920001,565.2445882920001,565.2445882920001,565.2589772919891,566.2496380419761,566.2496380419761,566.9928891249874,,,,,z,1,0.7335332499933429,None,1,001,2024-11-18_22h11.11.707,Motor Sequence Learning,2024.2.4,None,2024-11-18 22h11.20.128953 +0530,
-150,z,23,23,9,z,1,0.6006936250196304,None,,,,,9,23,23,3,567.0023254169791,,566.9932764169935,567.0023254169791,567.9867854169861,567.9867854169861,567.9867854169861,567.9867854169861,567.9942918749875,568.9827029579901,568.9827029579901,569.5944873749977,,,,,z,1,0.6006936250196304,None,1,001,2024-11-18_22h11.11.707,Motor Sequence Learning,2024.2.4,None,2024-11-18 22h11.20.128953 +0530,
50,c,24,24,5,c,1,0.8885908750235103,None,,,,,5,24,24,2,569.6044608749798,,569.5951029579737,569.6044608749798,570.593711249996,570.593711249996,570.593711249996,570.593711249996,570.6006869169942,571.5921953329816,571.5921953329816,572.4845644169836,,,,,c,1,0.8885908750235103,None,1,001,2024-11-18_22h11.11.707,Motor Sequence Learning,2024.2.4,None,2024-11-18 22h11.20.128953 +0530,
-150,z,25,25,10,z,1,0.504734832997201,None,,,,,10,25,25,3,572.4959073749778,,572.4851458749908,572.4959073749778,573.4779690419964,573.4779690419964,573.4779690419964,573.4779690419964,573.4937224169844,574.482807458,574.482807458,574.9934026249975,,,,,z,1,0.504734832997201,None,1,001,2024-11-18_22h11.11.707,Motor Sequence Learning,2024.2.4,None,2024-11-18 22h11.20.128953 +0530,
50,c,26,26,6,c,1,1.2016593329899479,None,,,,,6,26,26,2,575.0036747919803,,574.9938488749904,575.0036747919803,575.9867410419974,575.9867410419974,575.9867410419974,575.9867410419974,575.9945838329731,576.9903126249847,576.9903126249847,578.1942901669827,,,,,c,1,1.2016593329899479,None,1,001,2024-11-18_22h11.11.707,Motor Sequence Learning,2024.2.4,None,2024-11-18 22h11.20.128953 +0530,
150,v,27,27,5,v,1,0.9231661249941681,None,,,,,5,27,27,1,578.207661583001,,578.1949532079743,578.207661583001,579.1861687919882,579.1861687919882,579.1861687919882,579.1861687919882,579.2088216669799,580.1903869999805,580.1903869999805,581.1171013749845,,,,,v,1,0.9231661249941681,None,1,001,2024-11-18_22h11.11.707,Motor Sequence Learning,2024.2.4,None,2024-11-18 22h11.20.128953 +0530,
-150,z,28,28,11,z,1,0.4655942500103265,None,,,,,11,28,28,3,581.1412944579788,,581.1175607499899,581.1412944579788,582.1110671669885,582.1110671669885,582.1110671669885,582.1110671669885,582.132022707985,583.1164858329867,583.1164858329867,583.5840940829949,,,,,z,1,0.4655942500103265,None,1,001,2024-11-18_22h11.11.707,Motor Sequence Learning,2024.2.4,None,2024-11-18 22h11.20.128953 +0530,
-50,x,29,29,4,x,1,0.4017059589968994,None,,,,,4,29,29,0,583.6079584169784,,583.5846747499891,583.6079584169784,584.591733416979,584.591733416979,584.591733416979,584.591733416979,584.6082840829913,585.5822292079974,585.5822292079974,585.9943151669868,,,,,x,1,0.4017059589968994,None,1,001,2024-11-18_22h11.11.707,Motor Sequence Learning,2024.2.4,None,2024-11-18 22h11.20.128953 +0530,
-150,z,30,30,12,z,1,0.46812129102181643,None,,,,,12,30,30,3,586.0039284169907,,585.9948481249739,586.0039284169907,586.9925202919985,586.9925202919985,586.9925202919985,586.9925202919985,587.0003584579972,587.9909117499774,587.9909117499774,588.46159183298,,,,,z,1,0.46812129102181643,None,1,001,2024-11-18_22h11.11.707,Motor Sequence Learning,2024.2.4,None,2024-11-18 22h11.20.128953 +0530,
150,v,31,31,6,v,1,0.6532985829981044,None,,,,,6,31,31,1,588.4712618329795,,588.461991958,588.4712618329795,589.4581877079909,589.4581877079909,589.4581877079909,589.4581877079909,589.4650426250009,590.4584678749961,590.4584678749961,591.11693774999,,,,,v,1,0.6532985829981044,None,1,001,2024-11-18_22h11.11.707,Motor Sequence Learning,2024.2.4,None,2024-11-18 22h11.20.128953 +0530,
-50,x,32,32,5,x,1,0.9434258330147713,None,,,,,5,32,32,0,591.1273797079921,,591.1173127919901,591.1273797079921,592.1121522499889,592.1121522499889,592.1121522499889,592.1121522499889,592.1253865420003,593.1161630419956,593.1161630419956,594.0674454580003,,,,,x,1,0.9434258330147713,None,1,001,2024-11-18_22h11.11.707,Motor Sequence Learning,2024.2.4,None,2024-11-18 22h11.20.128953 +0530,
50,c,33,33,7,c,1,0.7707831249863375,None,,,,,7,33,33,2,594.0786370829737,,594.0680603749934,594.0786370829737,595.0663484999968,595.0663484999968,595.0663484999968,595.0663484999968,595.0736604169942,596.0655055829848,596.0655055829848,596.8437212499848,,,,,c,1,0.7707831249863375,None,1,001,2024-11-18_22h11.11.707,Motor Sequence Learning,2024.2.4,None,2024-11-18 22h11.20.128953 +0530,
-50,x,34,34,6,x,1,0.608819749992108,None,,,,,6,34,34,0,596.8537347919773,,596.844209916977,596.8537347919773,597.841096041986,597.841096041986,597.841096041986,597.841096041986,597.8475165829877,598.8401997079782,598.8401997079782,599.4607969999779,,,,,x,1,0.608819749992108,None,1,001,2024-11-18_22h11.11.707,Motor Sequence Learning,2024.2.4,None,2024-11-18 22h11.20.128953 +0530,
50,c,35,35,8,c,1,0.7012168329965789,None,,,,,8,35,35,2,599.470666499983,,599.4614463329781,599.470666499983,600.458284332999,600.458284332999,600.458284332999,600.458284332999,600.4654874999833,601.4585867919959,601.4585867919959,602.165950249997,,,,,c,1,0.7012168329965789,None,1,001,2024-11-18_22h11.11.707,Motor Sequence Learning,2024.2.4,None,2024-11-18 22h11.20.128953 +0530,
150,v,36,36,7,v,1,0.618783165991772,None,,,,,7,36,36,1,602.1760872500017,,602.1663505829929,602.1760872500017,603.1623567079951,603.1623567079951,603.1623567079951,603.1623567079951,603.1752930419752,604.1662494579796,604.1662494579796,604.7938585829979,,,,,v,1,0.618783165991772,None,1,001,2024-11-18_22h11.11.707,Motor Sequence Learning,2024.2.4,None,2024-11-18 22h11.20.128953 +0530,
150,v,37,37,8,v,1,0.5031601660011802,None,,,,,8,37,37,1,604.8038595419785,,604.7944982499757,604.8038595419785,605.7932467079954,605.7932467079954,605.7932467079954,605.7932467079954,605.7998773329891,606.7920458749868,606.7920458749868,607.3110534169828,,,,,v,1,0.5031601660011802,None,1,001,2024-11-18_22h11.11.707,Motor Sequence Learning,2024.2.4,None,2024-11-18 22h11.20.128953 +0530,
-150,z,38,38,13,z,1,0.6229723750147969,None,,,,,13,38,38,3,607.3208840419829,,607.3114418329787,607.3208840419829,608.3096788330004,608.3096788330004,608.3096788330004,608.3096788330004,608.3166160419933,609.3083670419874,609.3083670419874,609.9428123749967,,,,,z,1,0.6229723750147969,None,1,001,2024-11-18_22h11.11.707,Motor Sequence Learning,2024.2.4,None,2024-11-18 22h11.20.128953 +0530,
50,c,39,39,9,c,1,0.7928765830001794,None,,,,,9,39,39,2,609.9500459999836,,609.943092499976,609.9500459999836,610.9422469169949,610.9422469169949,610.9422469169949,610.9422469169949,610.9503198749735,611.9324823749776,611.9324823749776,612.7353934169805,,,,,c,1,0.7928765830001794,None,1,001,2024-11-18_22h11.11.707,Motor Sequence Learning,2024.2.4,None,2024-11-18 22h11.20.128953 +0530,
-50,x,40,40,7,x,1,0.469930374994874,None,,,,,7,40,40,0,612.7433190829761,,612.7356901669991,612.7433190829761,613.7338449579838,613.7338449579838,613.7338449579838,613.7338449579838,613.740386666992,614.7323229999747,614.7323229999747,615.2104053749936,,,,,x,1,0.469930374994874,None,1,001,2024-11-18_22h11.11.707,Motor Sequence Learning,2024.2.4,None,2024-11-18 22h11.20.128953 +0530,
-50,x,41,41,8,x,1,0.4248444999975618,None,,,,,8,41,41,0,615.2198042919917,,615.2109944169933,615.2198042919917,616.203148999979,616.203148999979,616.203148999979,616.203148999979,616.2104763329844,617.2078631249897,617.2078631249897,617.643963999988,,,,,x,1,0.4248444999975618,None,1,001,2024-11-18_22h11.11.707,Motor Sequence Learning,2024.2.4,None,2024-11-18 22h11.20.128953 +0530,
-50,x,42,42,9,x,1,0.3768917080014944,None,,,,,9,42,42,0,617.6541734579951,,617.644567957992,617.6541734579951,618.6359409169818,618.6359409169818,618.6359409169818,618.6359409169818,618.658410916978,619.6416722079739,619.6416722079739,620.0260204579972,,,,,x,1,0.3768917080014944,None,1,001,2024-11-18_22h11.11.707,Motor Sequence Learning,2024.2.4,None,2024-11-18 22h11.20.128953 +0530,
-150,z,43,43,14,z,1,0.6661638329969719,None,,,,,14,43,43,3,620.035514749994,,620.0263847079768,620.035514749994,621.0258061249915,621.0258061249915,621.0258061249915,621.0258061249915,621.032890292001,622.0157080419885,622.0157080419885,622.6927224579849,,,,,z,1,0.6661638329969719,None,1,001,2024-11-18_22h11.11.707,Motor Sequence Learning,2024.2.4,None,2024-11-18 22h11.20.128953 +0530,
-150,z,44,44,15,z,1,0.5056298749987036,None,,,,,15,44,44,3,622.702284332976,,622.6930992499983,622.702284332976,623.6918431249796,623.6918431249796,623.6918431249796,623.6918431249796,623.6987065829744,624.6916371249827,624.6916371249827,625.1992626669817,,,,,z,1,0.5056298749987036,None,1,001,2024-11-18_22h11.11.707,Motor Sequence Learning,2024.2.4,None,2024-11-18 22h11.20.128953 +0530,
50,c,45,45,10,c,1,0.8873914160067216,None,,,,,10,45,45,2,625.2097063330002,,625.1996469579753,625.2097063330002,626.2004215419875,626.2004215419875,626.2004215419875,626.2004215419875,626.2004215419875,627.1987728329841,627.1987728329841,628.093590332981,,,,,c,1,0.8873914160067216,None,1,001,2024-11-18_22h11.11.707,Motor Sequence Learning,2024.2.4,None,2024-11-18 22h11.20.128953 +0530,
-50,x,46,46,10,x,1,0.7843212919833604,None,,,,,10,46,46,0,628.1035094579856,,628.0941834579862,628.1035094579856,629.0861172919977,629.0861172919977,629.0861172919977,629.0861172919977,629.0933312079869,630.0911030829884,630.0911030829884,630.8778108329861,,,,,x,1,0.7843212919833604,None,1,001,2024-11-18_22h11.11.707,Motor Sequence Learning,2024.2.4,None,2024-11-18 22h11.20.128953 +0530,
150,v,47,47,9,v,1,0.7795349580119364,None,,,,,9,47,47,1,630.8876673749764,,630.8782676249975,630.8876673749764,631.8763449580001,631.8763449580001,631.8763449580001,631.8763449580001,631.8832110829826,632.8751937919878,632.8751937919878,633.6606781249866,,,,,v,1,0.7795349580119364,None,1,001,2024-11-18_22h11.11.707,Motor Sequence Learning,2024.2.4,None,2024-11-18 22h11.20.128953 +0530,
50,c,48,48,11,c,1,0.4089450419996865,None,,,,,11,48,48,2,633.6749844999867,,633.6613139169931,633.6749844999867,634.6585790829849,634.6585790829849,634.6585790829849,634.6585790829849,634.6666012499772,635.6573689169891,635.6573689169891,636.0761291669914,,,,,c,1,0.4089450419996865,None,1,001,2024-11-18_22h11.11.707,Motor Sequence Learning,2024.2.4,None,2024-11-18 22h11.20.128953 +0530,
-50,x,49,49,11,x,1,0.4625262079935055,None,,,,,11,49,49,0,636.0866073749785,,636.0765821249806,636.0866073749785,637.0758843329968,637.0758843329968,637.0758843329968,637.0758843329968,637.083043666993,638.0744281669904,638.0744281669904,638.5428529169876,,,,,x,1,0.4625262079935055,None,1,001,2024-11-18_22h11.11.707,Motor Sequence Learning,2024.2.4,None,2024-11-18 22h11.20.128953 +0530,
-150,z,50,50,16,z,1,0.47961970799951814,None,,,,,16,50,50,3,638.5519877919869,,638.543242832995,638.5519877919869,639.543380166986,639.543380166986,639.543380166986,639.543380166986,639.5497817919822,640.5404770419991,640.5404770419991,641.0263150829996,,,,,z,1,0.47961970799951814,None,1,001,2024-11-18_22h11.11.707,Motor Sequence Learning,2024.2.4,None,2024-11-18 22h11.20.128953 +0530,
50,c,51,51,12,c,1,0.755562790989643,None,,,,,12,51,51,2,641.0366541669937,,641.0269683749939,641.0366541669937,642.0252373330004,642.0252373330004,642.0252373330004,642.0252373330004,642.0324049999763,643.0231646249886,643.0231646249886,643.781896749977,,,,,c,1,0.755562790989643,None,1,001,2024-11-18_22h11.11.707,Motor Sequence Learning,2024.2.4,None,2024-11-18 22h11.20.128953 +0530,
