delay,freq,condition,thisN,thisTrialN,thisRepN,key_resp.keys,key_resp.rt,key_resp.duration,textbox.text,button.numClicks,button.timesOn,button.timesOff,trials.thisRepN,trials.thisTrialN,trials.thisN,trials.thisIndex,thisRow.t,notes,trial.started,Fixation.started,Fixation.stopped,Polygon.started,key_resp.started,trial.stopped,trials.key_resp.keys,trials.key_resp.rt,trials.key_resp.duration,beep.started,sound_1.started,sound_1.stopped,beep.stopped,response.started,display_text.started,textbox.started,button.started,response.stopped,trials.textbox.text,trials.button.numClicks,trials.button.timesOn,trials.button.timesOff,participant,session,date,expName,psychopyVersion,frameRate,expStart,
0.1,400,exp,0,0,0,space,0.5641879169997992,None,"
600",1,[2.632169167001848],[2.632172209006967],0,0,0,9,0.055486084005679004,,0.044304625000222586,0.055486084005679004,2.052134166995529,2.9973776249971706,3.9939924999926006,4.570470916994964,space,0.5641879169997992,None,4.570926749991486,0.10544129200570751,0.4068018329999177,4.981157458998496,4.985064541993779,5.020052084000781,5.020052084000781,5.020052084000781,7.652583792005316,"
600",1,[2.632169167001848],[2.632172209006967],156803,001,2024-11-14_23h19.21.375,intentional_bonding,2024.2.4,121.46228343977585,2024-11-14 23h19.26.567837 +0530,
0.1,400,exp,1,1,0,space,2.1094951669947477,None,"
100",1,[1.8867127500125207],[1.8867151660087984],0,1,1,6,7.657321916994988,,7.652741833997425,7.657321916994988,9.652362334003556,10.64685454199207,11.642839833992184,13.755063083997811,space,2.1094951669947477,None,13.755610624997644,0.10507620799762663,0.4063389999937499,14.165441874996759,14.167625292000594,14.190488833992276,14.190488833992276,14.190488833992276,16.07749895899906,"
100",1,[1.8867127500125207],[1.8867151660087984],156803,001,2024-11-14_23h19.21.375,intentional_bonding,2024.2.4,121.46228343977585,2024-11-14 23h19.26.567837 +0530,
0.7,400,exp,2,2,0,space,0.30311016700579785,None,"
300 ",1,[1.2690307500015479],[1.2690332499914803],0,2,2,8,16.085623209000914,,16.077634959001443,16.085623209000914,18.076304583999445,19.086663209003746,20.071530000001076,20.378137541993055,space,0.30311016700579785,None,20.37865545900422,0.6995380830048816,0.9998080420045881,21.38281220900535,21.385343834001105,21.40781629200501,21.40781629200501,21.40781629200501,22.677140208994388,"
300 ",1,[1.2690307500015479],[1.2690332499914803],156803,001,2024-11-14_23h19.21.375,intentional_bonding,2024.2.4,121.46228343977585,2024-11-14 23h19.26.567837 +0530,
0.7,400,exp,3,3,0,space,0.2231856250000419,None,"
900",1,[2.41124991599645],[2.411252499994589],0,3,3,5,22.6852297919977,,22.677281625001342,22.6852297919977,24.676799459004542,25.686476000002585,26.66976533399429,26.89680704199418,space,0.2231856250000419,None,26.898223041993333,0.7054070000012871,1.0053707920014858,27.90715587500017,27.909418084003846,27.93182045899448,27.93182045899448,27.93182045899448,30.343384749998222,"
900",1,[2.41124991599645],[2.411252499994589],156803,001,2024-11-14_23h19.21.375,intentional_bonding,2024.2.4,121.46228343977585,2024-11-14 23h19.26.567837 +0530,
0.4,1000,unexp,4,4,0,space,2.080624791997252,None,"
1000",1,[2.3020337500056485],[2.302036541994312],0,4,4,1,30.351594334002584,,30.34351512500143,30.351594334002584,32.345140417004586,33.3370606249955,34.33522254199488,36.420558583995444,space,2.080624791997252,None,36.421686542002135,0.406486624997342,0.7072930419963086,37.1320673750015,37.13419854200038,37.157709124992834,37.157709124992834,37.157709124992834,39.46007220899628,"
1000",1,[2.3020337500056485],[2.302036541994312],156803,001,2024-11-14_23h19.21.375,intentional_bonding,2024.2.4,121.46228343977585,2024-11-14 23h19.26.567837 +0530,
0.7,1000,unexp,5,5,0,space,0.2050429590017302,None,"
300",1,[1.7990394579974236],[1.7990425000025425],0,5,5,2,39.468337500002235,,39.460188958997605,39.468337500002235,41.45700979199319,42.478119833991514,43.45192649999808,43.66197674999421,space,0.2050429590017302,None,43.66251454199664,0.6992731249920325,0.9984663749928586,44.665413666996756,44.66774049999367,44.69368520900025,44.69368520900025,44.69368520900025,46.493018459004816,"
300",1,[1.7990394579974236],[1.7990425000025425],156803,001,2024-11-14_23h19.21.375,intentional_bonding,2024.2.4,121.46228343977585,2024-11-14 23h19.26.567837 +0530,
0.1,1000,unexp,6,6,0,space,2.6928170419996604,None,"
30",1,[2.4881874580023577],[2.4881898330058903],0,6,6,0,46.50155412500317,,46.493139500002144,46.50155412500317,48.49283479199221,49.488882459001616,50.48588829199434,53.18969379199552,space,2.6928170419996604,None,53.19005033400026,0.1036244160059141,0.40418150000914466,53.599004292002064,53.60123800000292,53.62131733399292,53.62131733399292,53.62131733399292,56.10981858399464,"
30",1,[2.4881874580023577],[2.4881898330058903],156803,001,2024-11-14_23h19.21.375,intentional_bonding,2024.2.4,121.46228343977585,2024-11-14 23h19.26.567837 +0530,
0.1,1000,unexp,7,7,0,space,3.845019125001272,None,"
200",1,[2.737532999992254],[2.7375353329989593],0,7,7,3,56.1181507089932,,56.10994362499332,56.1181507089932,58.110182208998594,59.119619000004604,60.10285737499362,63.95417749999615,space,3.845019125001272,None,63.95455325000512,0.10585337498923764,0.4058114169893088,64.36519949999638,64.36746795900399,64.3886090839951,64.3886090839951,64.3886090839951,67.12646650000534,"
200",1,[2.737532999992254],[2.7375353329989593],156803,001,2024-11-14_23h19.21.375,intentional_bonding,2024.2.4,121.46228343977585,2024-11-14 23h19.26.567837 +0530,
0.4,1000,unexp,8,8,0,space,3.14215262500511,None,"
50",1,[0.995806791994255],[0.9958111669984646],0,8,8,4,67.13494145899313,,67.12659145900398,67.13494145899313,69.12655600000289,70.13620108399482,71.11898104200372,74.27220799999486,space,3.14215262500511,None,74.27343758399365,0.4041578339965781,0.7054552089975914,74.98127533399384,74.98351945899776,75.00357016699854,75.00357016699854,75.00357016699854,75.99995870899875,"
50",1,[0.995806791994255],[0.9958111669984646],156803,001,2024-11-14_23h19.21.375,intentional_bonding,2024.2.4,121.46228343977585,2024-11-14 23h19.26.567837 +0530,
0.4,400,exp,9,9,0,space,0.5097091249917867,None,"
30",1,[0.7192201249999925],[0.7192225420003524],0,9,9,7,76.00541545900342,,76.00011454199557,76.00541545900342,78.00198120900313,78.99633500000346,79.99350554199191,80.50543229200412,space,0.5097091249917867,None,80.50618949999625,0.40367154200794175,0.7040901250002207,81.21441666700412,81.21682862499438,81.23991454199131,81.23991454199131,81.23991454199131,81.95951091700408,"
30",1,[0.7192201249999925],[0.7192225420003524],156803,001,2024-11-14_23h19.21.375,intentional_bonding,2024.2.4,121.46228343977585,2024-11-14 23h19.26.567837 +0530,
0.4,1000,unexp,10,0,1,space,1.5420212499884656,None,"
600",1,[1.3293173749989364],[1.3293204159999732],1,0,10,1,81.96823633399617,,81.95964954199735,81.96823633399617,83.95909099999699,84.95359854199341,85.96932216700225,87.51933199999621,space,1.5420212499884656,None,87.51974695899116,0.4003198330028681,0.7066362080076942,88.2265250000055,88.22797695899499,88.24593637499493,88.24593637499493,88.24593637499493,89.57554770899878,"
600",1,[1.3293173749989364],[1.3293204159999732],156803,001,2024-11-14_23h19.21.375,intentional_bonding,2024.2.4,121.46228343977585,2024-11-14 23h19.26.567837 +0530,
0.7,400,exp,11,1,1,space,0.5982830840075621,None,"
40",1,[1.37058133300161],[1.370584250005777],1,1,11,5,89.5844747920055,,89.57566474999476,89.5844747920055,91.57791675000044,92.571826667001,93.5696380839945,94.1710182090028,space,0.5982830840075621,None,94.17185358400457,0.7061634160054382,1.0056029580009636,95.18150908399548,95.18426308399648,95.20475804200396,95.20475804200396,95.20475804200396,96.57569137499377,"
40",1,[1.37058133300161],[1.370584250005777],156803,001,2024-11-14_23h19.21.375,intentional_bonding,2024.2.4,121.46228343977585,2024-11-14 23h19.26.567837 +0530,
0.7,400,exp,12,2,1,space,0.623708583007101,None,"
20",1,[1.689763792004669],[1.6897662920091534],1,2,12,8,96.58460499999637,,96.57582229199761,96.58460499999637,98.57388079199882,99.57078245899174,100.56799654199858,101.1950718750013,space,0.623708583007101,None,101.1958202090027,0.706756208994193,1.0084672090015374,102.20695158399758,102.20986937500129,102.23616741699516,102.23616741699516,102.23616741699516,103.9262402089953,"
20",1,[1.689763792004669],[1.6897662920091534],156803,001,2024-11-14_23h19.21.375,intentional_bonding,2024.2.4,121.46228343977585,2024-11-14 23h19.26.567837 +0530,
0.1,400,exp,13,3,1,space,0.30968100001337007,None,"
98",1,[3.168243958003586],[3.168247000008705],1,3,13,6,103.93439908399887,,103.92641345900483,103.93439908399887,105.9263925839914,106.92177683400223,107.91822916700039,108.23748916700424,space,0.30968100001337007,None,108.23902145899774,0.10664124999311753,0.414070291997632,108.65232970900252,108.65371879200393,108.67431095900247,108.67431095900247,108.67431095900247,111.84283766700537,"
98",1,[3.168243958003586],[3.168247000008705],156803,001,2024-11-14_23h19.21.375,intentional_bonding,2024.2.4,121.46228343977585,2024-11-14 23h19.26.567837 +0530,
0.4,400,exp,14,4,1,space,2.2043452090001665,None,"
300",1,[1.5170292090042494],[1.517031750001479],1,4,14,7,111.8510948339972,,111.84297904200503,111.8510948339972,113.8428161250049,114.83857529200031,115.83469062499353,118.04470379199483,space,2.2043452090001665,None,118.04517883399967,0.39929566699720453,0.7069294169923523,118.75255804200424,118.75456579199817,118.77543154200248,118.77543154200248,118.77543154200248,120.29276829199807,"
300",1,[1.5170292090042494],[1.517031750001479],156803,001,2024-11-14_23h19.21.375,intentional_bonding,2024.2.4,121.46228343977585,2024-11-14 23h19.26.567837 +0530,
0.7,1000,unexp,15,5,1,space,0.37550545900012366,None,"
400",1,[1.2384046250081155],[1.2384077080059797],1,5,15,2,120.30138104199432,,120.29289566699299,120.30138104199432,122.29402074999234,123.30258725000022,124.2859661669936,124.67019854199316,space,0.37550545900012366,None,124.67068745900178,0.7062916669965489,1.006197875001817,125.68145779200131,125.6841397919925,125.7040639170009,125.7040639170009,125.7040639170009,126.94286170900159,"
400",1,[1.2384046250081155],[1.2384077080059797],156803,001,2024-11-14_23h19.21.375,intentional_bonding,2024.2.4,121.46228343977585,2024-11-14 23h19.26.567837 +0530,
0.1,1000,unexp,16,6,1,space,1.3846410419937456,None,"
40",1,[0.9395582500001183],[0.9395608750055544],1,6,16,0,126.95103895899956,,126.94297624999308,126.95103895899956,128.94297299999744,129.95258854200074,130.93457554199267,132.32168141700095,space,1.3846410419937456,None,132.32238991699705,0.10335166699951515,0.40550004200486,132.73010200000135,132.73214029199153,132.75291316700168,132.75291316700168,132.75291316700168,133.69277570900158,"
40",1,[0.9395582500001183],[0.9395608750055544],156803,001,2024-11-14_23h19.21.375,intentional_bonding,2024.2.4,121.46228343977585,2024-11-14 23h19.26.567837 +0530,
0.4,1000,unexp,17,7,1,space,0.6065634999977192,None,"
45",1,[3.192582666990347],[3.192585707991384],1,7,17,4,133.70090720900043,,133.692895375003,133.70090720900043,135.6917908750038,136.6869206669944,137.70263866700407,138.31113533399184,space,0.6065634999977192,None,138.31201266699645,0.40699524999945424,0.7067944580048788,139.02306858399243,139.02528704199358,139.0488709170022,139.0488709170022,139.0488709170022,142.24175087499316,"
45",1,[3.192582666990347],[3.192585707991384],156803,001,2024-11-14_23h19.21.375,intentional_bonding,2024.2.4,121.46228343977585,2024-11-14 23h19.26.567837 +0530,
0.1,400,exp,18,8,1,space,0.2866642500011949,None,"
20",1,[5.64650016700034],[5.646502834002604],1,8,18,9,142.25087816700398,,142.24187795899343,142.25087816700398,144.241764624996,145.23858516699693,146.23518954199972,146.52945837499283,space,0.2866642500011949,None,146.5302448339935,0.10628545901272446,0.4053377090021968,146.94000729199615,146.94215537499986,146.96198091699625,146.96198091699625,146.96198091699625,152.60886354200193,"
20",1,[5.64650016700034],[5.646502834002604],156803,001,2024-11-14_23h19.21.375,intentional_bonding,2024.2.4,121.46228343977585,2024-11-14 23h19.26.567837 +0530,
0.1,1000,unexp,19,9,1,space,0.3423119999933988,None,"
50",1,[2.684762959004729],[2.684765416997834],1,9,19,3,152.61733629199443,,152.60899512500328,152.61733629199443,154.60683654199238,155.60459270900174,156.61913795900182,156.96994808399177,space,0.3423119999933988,None,156.9710490419966,0.10742712499632034,0.40695212500577327,157.3823284169921,157.38445825000235,157.40714712499175,157.40714712499175,157.40714712499175,160.09224204199563,"
50",1,[2.684762959004729],[2.684765416997834],156803,001,2024-11-14_23h19.21.375,intentional_bonding,2024.2.4,121.46228343977585,2024-11-14 23h19.26.567837 +0530,
0.1,1000,unexp,20,0,2,space,9.098882624995895,None,"
60",1,[3.4217683330061845],[3.4217714999977034],2,0,20,3,160.10082970900112,,160.09237191699503,160.10082970900112,162.09208308400412,163.0862848340039,164.08491637499537,173.18783145899943,space,9.098882624995895,None,173.18839366700558,0.10341458300536033,0.40467845799867064,173.59605533399736,173.59777487500105,173.61990237499413,173.61990237499413,173.61990237499413,177.04199675000564,"
60",1,[3.4217683330061845],[3.4217714999977034],156803,001,2024-11-14_23h19.21.375,intentional_bonding,2024.2.4,121.46228343977585,2024-11-14 23h19.26.567837 +0530,
0.4,1000,unexp,21,1,2,space,0.6086167500034207,None,"
900",1,[3.4685314590024063],[3.468534334009746],2,1,21,4,177.05058558400196,,177.04212187499797,177.05058558400196,179.04226404200017,180.05218266700103,181.03586279199226,181.66953345900401,space,0.6086167500034207,None,181.6706529170042,0.4060933330038097,0.7064570829970762,182.3808427920012,182.3832380840031,182.406488291992,182.406488291992,182.406488291992,185.87532541700057,"
900",1,[3.4685314590024063],[3.468534334009746],156803,001,2024-11-14_23h19.21.375,intentional_bonding,2024.2.4,121.46228343977585,2024-11-14 23h19.26.567837 +0530,
0.4,1000,unexp,22,2,2,space,0.13726591700105928,None,"
300",1,[2.2375940829952015],[2.2375966660038102],2,2,22,1,185.88395845900232,,185.8754474169982,185.88395845900232,187.87507237499813,188.88544450000336,189.86887004200253,190.01015175000066,space,0.13726591700105928,None,190.0105066249962,0.39973841700702906,0.6989446250081528,190.71416150000005,190.71668666700134,190.73748245899333,190.73748245899333,190.73748245899333,192.97542879199318,"
300",1,[2.2375940829952015],[2.2375966660038102],156803,001,2024-11-14_23h19.21.375,intentional_bonding,2024.2.4,121.46228343977585,2024-11-14 23h19.26.567837 +0530,
0.7,400,exp,23,3,2,space,6.9679892910062335,None,"
56",1,[7.851990750001278],[7.851993458010838],2,3,23,5,192.98388883400185,,192.97556370899838,192.98388883400185,194.97589633399912,195.99286083399784,196.96732341700408,203.93729945899395,space,6.9679892910062335,None,203.93781429200317,0.7053977079922333,1.0053289579955162,204.94787629200437,204.95032437499322,204.97306379200018,204.97306379200018,204.97306379200018,212.8253642089985,"
56",1,[7.851990750001278],[7.851993458010838],156803,001,2024-11-14_23h19.21.375,intentional_bonding,2024.2.4,121.46228343977585,2024-11-14 23h19.26.567837 +0530,
0.4,400,exp,24,4,2,space,0.3253815409989329,None,"
35",1,[3.904092041993863],[3.9040952079958515],2,4,24,7,212.83368233399233,,212.82551374999457,212.83368233399233,214.82469770900207,215.81979154200235,216.81835037500423,217.15409424999962,space,0.3253815409989329,None,217.15525462500227,0.40484404099697713,0.7050289999897359,217.86435079199146,217.8671650000033,217.88722649999545,217.88722649999545,217.88722649999545,221.79164450000098,"
35",1,[3.904092041993863],[3.9040952079958515],156803,001,2024-11-14_23h19.21.375,intentional_bonding,2024.2.4,121.46228343977585,2024-11-14 23h19.26.567837 +0530,
0.7,1000,unexp,25,5,2,space,0.2607412500074133,None,"
800",1,[1.7023440829943866],[1.7023466669925256],2,5,25,2,221.80032916700293,,221.79176837499836,221.80032916700293,223.79361370900006,224.78812633399502,225.78394129200024,226.0543511249998,space,0.2607412500074133,None,226.05488133399922,0.7037987079966115,1.0050912080041599,227.06352666699968,227.06580408399168,227.08911712499685,227.08911712499685,227.08911712499685,228.79177958400396,"
800",1,[1.7023440829943866],[1.7023466669925256],156803,001,2024-11-14_23h19.21.375,intentional_bonding,2024.2.4,121.46228343977585,2024-11-14 23h19.26.567837 +0530,
0.1,1000,unexp,26,6,2,space,0.6286629999958677,None,"
200",1,[1.6291264169994975],[1.6291290000081062],2,6,26,0,228.8002650839917,,228.79190687500522,228.8002650839917,230.79206945899932,231.78753662499366,232.79365754200262,233.42885037499946,space,0.6286629999958677,None,233.4295569590031,0.10657437500776723,0.40577316700364463,233.83967345899146,233.8415620839951,233.86216929199873,233.86216929199873,233.86216929199873,235.49162545899162,"
200",1,[1.6291264169994975],[1.6291290000081062],156803,001,2024-11-14_23h19.21.375,intentional_bonding,2024.2.4,121.46228343977585,2024-11-14 23h19.26.567837 +0530,
0.1,400,exp,27,7,2,space,0.3947087919950718,None,"
40",1,[1.4552967920026276],[1.4552994170080638],2,7,27,6,235.5003784589935,,235.4917467500054,235.5003784589935,237.4921533750021,238.48456666700076,239.48958854199736,239.88686695900105,space,0.3947087919950718,None,239.88748950000445,0.10476758300501388,0.40513258300779853,240.29669058400032,240.2984969590034,240.31918175000465,240.31918175000465,240.31918175000465,241.7747932499915,"
40",1,[1.4552967920026276],[1.4552994170080638],156803,001,2024-11-14_23h19.21.375,intentional_bonding,2024.2.4,121.46228343977585,2024-11-14 23h19.26.567837 +0530,
0.1,400,exp,28,8,2,space,0.3889127090078546,None,"
48",1,[1.3214026669884333],[1.3214055839926004],2,8,28,9,241.7835970419983,,241.77491879199806,241.7835970419983,243.775469375003,244.78561895899475,245.78478708400507,246.18673270900035,space,0.3889127090078546,None,246.18726254199282,0.10465683399525005,0.4065675839956384,246.59617383399745,246.59818495900254,246.6197504169977,246.6197504169977,246.6197504169977,247.94157266699767,"
48",1,[1.3214026669884333],[1.3214055839926004],156803,001,2024-11-14_23h19.21.375,intentional_bonding,2024.2.4,121.46228343977585,2024-11-14 23h19.26.567837 +0530,
0.7,400,exp,29,9,2,space,1.1245419170008972,None,"
10",1,[1.3282567499991274],[1.328259292000439],2,9,29,8,247.95034008400398,,247.94170304200088,247.95034008400398,249.94153912499314,250.93737595899438,251.93392899999162,253.06059729200206,space,1.1245419170008972,None,253.0614623339934,0.7078096250043018,1.0079056249960558,254.07379466699786,254.0761061670055,254.09648583400121,254.09648583400121,254.09648583400121,255.42506845899334,"
10",1,[1.3282567499991274],[1.328259292000439],156803,001,2024-11-14_23h19.21.375,intentional_bonding,2024.2.4,121.46228343977585,2024-11-14 23h19.26.567837 +0530,
0.7,400,exp,30,0,3,space,0.7069087919953745,None,"
30",1,[1.5490351250045933],[1.549037667005905],3,0,30,5,255.43334804200276,,255.42519858399464,255.43334804200276,257.42423308399157,258.4348699999973,259.42721249999886,260.1366723340034,space,0.7069087919953745,None,260.137707959002,0.7061304160015425,1.0138718329981202,261.151435791995,261.1535376249958,261.17525954199664,261.17525954199664,261.17525954199664,262.7246410420048,"
30",1,[1.5490351250045933],[1.549037667005905],156803,001,2024-11-14_23h19.21.375,intentional_bonding,2024.2.4,121.46228343977585,2024-11-14 23h19.26.567837 +0530,
0.4,1000,unexp,31,1,3,space,0.23752183400210924,None,"
90",1,[3.0671310830075527],[3.067134041004465],3,1,31,4,262.7332972919976,,262.7247642919974,262.7332972919976,264.73546416699537,265.7185701249982,266.71817170899885,266.970391750001,space,0.23752183400210924,None,266.97156958399864,0.40476779200253077,0.7053127920080442,267.6804524170002,267.68335941700207,267.7072620419931,267.7072620419931,267.7072620419931,270.7747244170023,"
90",1,[3.0671310830075527],[3.067134041004465],156803,001,2024-11-14_23h19.21.375,intentional_bonding,2024.2.4,121.46228343977585,2024-11-14 23h19.26.567837 +0530,
0.7,1000,unexp,32,2,3,space,0.42157045799831394,None,"
500",1,[0.9870667080103885],[0.9870708750095218],3,2,32,2,270.7834184999956,,270.7748547499941,270.7834184999956,272.77529883399257,273.77024283399805,274.76753816699784,275.1949660840037,space,0.42157045799831394,None,275.1953639169951,0.7066805420035962,1.0137735419993987,276.2094010419969,276.21125337500416,276.2376471669995,276.2376471669995,276.2376471669995,277.22506104200147,"
500",1,[0.9870667080103885],[0.9870708750095218],156803,001,2024-11-14_23h19.21.375,intentional_bonding,2024.2.4,121.46228343977585,2024-11-14 23h19.26.567837 +0530,
0.4,400,exp,33,3,3,space,0.7398817920038709,None,"
300",1,[4.011214750004001],[4.011217666004086],3,3,33,7,277.2335314590018,,277.2251854589995,277.2335314590018,279.22455012499995,280.22039233399846,281.21831108399783,281.9623420419957,space,0.7398817920038709,None,281.96343841699127,0.40478562499629334,0.7046554169937735,282.67161658400437,282.6739535420056,282.6964981249912,282.6964981249912,282.6964981249912,286.7080460839934,"
300",1,[4.011214750004001],[4.011217666004086],156803,001,2024-11-14_23h19.21.375,intentional_bonding,2024.2.4,121.46228343977585,2024-11-14 23h19.26.567837 +0530,
0.1,1000,unexp,34,4,3,space,3.5775072500109673,None,"
600",1,[2.38830066700757],[2.3883032919984544],3,4,34,3,286.7164697499975,,286.7081753340026,286.7164697499975,288.70738270899164,289.71805412499816,290.70074229199963,294.2861938749993,space,3.5775072500109673,None,294.28701029199874,0.10530212499725167,0.4056884580058977,294.69649716699496,294.6987683339976,294.7195212920051,294.7195212920051,294.7195212920051,297.10821008399944,"
600",1,[2.38830066700757],[2.3883032919984544],156803,001,2024-11-14_23h19.21.375,intentional_bonding,2024.2.4,121.46228343977585,2024-11-14 23h19.26.567837 +0530,
0.4,1000,unexp,35,5,3,space,0.023921332991449162,None,"
79",1,[1.971822291990975],[1.9718251249869354],3,5,35,1,297.1167289589939,,297.10833454200474,297.1167289589939,299.1076792919921,300.1179842089914,301.1018836669973,301.1369144170021,space,0.023921332991449162,None,301.1379952499992,0.4039212920033606,0.7046563340118155,301.8457772499969,301.84837120899465,301.8694470420014,301.8694470420014,301.8694470420014,303.8415739589982,"
79",1,[1.971822291990975],[1.9718251249869354],156803,001,2024-11-14_23h19.21.375,intentional_bonding,2024.2.4,121.46228343977585,2024-11-14 23h19.26.567837 +0530,
0.1,1000,unexp,36,6,3,space,0.3613742919987999,None,"
40",1,[1.7049452500068583],[1.7049477500113426],3,6,36,0,303.84962949999317,,303.8416942920012,303.84962949999317,305.8405604589934,306.8366275839944,307.83345474999805,308.20352091699897,space,0.3613742919987999,None,308.2046947499912,0.10557716600305866,0.40499595800065435,308.61396420899837,308.6161972090049,308.63624708399584,308.63624708399584,308.63624708399584,310.3415493749926,"
40",1,[1.7049452500068583],[1.7049477500113426],156803,001,2024-11-14_23h19.21.375,intentional_bonding,2024.2.4,121.46228343977585,2024-11-14 23h19.26.567837 +0530,
0.1,400,exp,37,7,3,space,0.9471782500040717,None,"
87",1,[1.1485504580050474],[1.1485530409991043],3,7,37,6,310.34975454199594,,310.3416688750003,310.34975454199594,312.3408718339924,313.35103470900503,314.33496208400175,315.28723666700535,space,0.9471782500040717,None,315.2884982090036,0.10403679200680926,0.4145427500043297,315.7028184170049,315.7050280419935,315.7257564169995,315.7257564169995,315.7257564169995,316.8746213340055,"
87",1,[1.1485504580050474],[1.1485530409991043],156803,001,2024-11-14_23h19.21.375,intentional_bonding,2024.2.4,121.46228343977585,2024-11-14 23h19.26.567837 +0530,
0.1,400,exp,38,8,3,space,0.043140374997165054,None,"
56",1,[0.7723647079983493],[0.7723678750044201],3,8,38,9,316.8830136250035,,316.8747411249933,316.8830136250035,318.8742252920056,319.8846048340056,320.8673150419927,320.91934500000207,space,0.043140374997165054,None,320.9198625419958,0.10445808300573844,0.4058775000012247,321.3287768750015,321.3307798750029,321.35180400000536,321.35180400000536,321.35180400000536,322.1244679590018,"
56",1,[0.7723647079983493],[0.7723678750044201],156803,001,2024-11-14_23h19.21.375,intentional_bonding,2024.2.4,121.46228343977585,2024-11-14 23h19.26.567837 +0530,
0.7,400,exp,39,9,3,space,1.7155836669990094,None,"
90",1,[2.7382439590001013],[2.7382465839909855],3,9,39,8,322.1329097919952,,322.1245928339922,322.1329097919952,324.1254963340034,325.11811083399516,326.11855591699714,327.84072350000497,space,1.7155836669990094,None,327.84119283399195,0.7009992079983931,1.000076041003922,328.84536083399144,328.84774412499974,328.8691406669968,328.8691406669968,328.8691406669968,331.60776412500127,"
90",1,[2.7382439590001013],[2.7382465839909855],156803,001,2024-11-14_23h19.21.375,intentional_bonding,2024.2.4,121.46228343977585,2024-11-14 23h19.26.567837 +0530,
0.7,400,exp,40,0,4,space,0.12481929099885747,None,"
35",1,[1.3792962080042344],[1.3792989170033252],4,0,40,5,331.61614354199264,,331.6078917499981,331.61614354199264,333.60823358400376,334.6015981249948,335.60130741700414,335.7281577090034,space,0.12481929099885747,None,335.7286443750054,0.7053536250023171,1.005686667005648,336.738678624999,336.74107470900344,336.761871041992,336.761871041992,336.761871041992,338.14152633400226,"
35",1,[1.3792962080042344],[1.3792989170033252],156803,001,2024-11-14_23h19.21.375,intentional_bonding,2024.2.4,121.46228343977585,2024-11-14 23h19.26.567837 +0530,
0.1,1000,unexp,41,1,4,space,0.13273270799254533,None,"
84",1,[3.20958429199527],[3.2095867919997545],4,1,41,0,338.14945799999987,,338.1416806670022,338.14945799999987,340.14158579199284,341.13472158399236,342.13298116700025,342.26846249999653,space,0.13273270799254533,None,342.2694746670022,0.10031362499285024,0.40597733299364336,342.67504758399446,342.67625533399405,342.697605459005,342.697605459005,342.697605459005,345.9075141249923,"
84",1,[3.20958429199527],[3.2095867919997545],156803,001,2024-11-14_23h19.21.375,intentional_bonding,2024.2.4,121.46228343977585,2024-11-14 23h19.26.567837 +0530,
0.1,400,exp,42,2,4,space,0.7499818340002093,None,"
34",1,[1.8708801250031684],[1.8708826249931008],4,2,42,6,345.9163434999937,,345.9076324589987,345.9163434999937,347.90693245899456,348.9022047920007,349.90024279199133,350.6531084169983,space,0.7499818340002093,None,350.6537975419924,0.10508816699439194,0.4060960420029005,351.06348266699933,351.0659056250006,351.0864180839999,351.0864180839999,351.0864180839999,352.9576307919924,"
34",1,[1.8708801250031684],[1.8708826249931008],156803,001,2024-11-14_23h19.21.375,intentional_bonding,2024.2.4,121.46228343977585,2024-11-14 23h19.26.567837 +0530,
0.4,1000,unexp,43,3,4,space,0.5088918749970617,None,"
23",1,[1.4113594160007779],[1.4113622909935657],4,3,43,1,352.9660041669995,,352.9577677500056,352.9660041669995,354.9570661250036,355.96767454200017,356.9590937089961,357.4762422499916,space,0.5088918749970617,None,357.4768162499968,0.40715366599033587,0.7069789579982171,358.18860783400305,358.1911296670005,358.2120931249956,358.2120931249956,358.2120931249956,359.6237646249938,"
23",1,[1.4113594160007779],[1.4113622909935657],156803,001,2024-11-14_23h19.21.375,intentional_bonding,2024.2.4,121.46228343977585,2024-11-14 23h19.26.567837 +0530,
0.7,400,exp,44,4,4,space,0.3363992920058081,None,"
74",1,[2.538046667003073],[2.5380494999990333],4,4,44,8,359.63282962499943,,359.6238831249939,359.63282962499943,361.62510695899255,362.61883366700204,363.616586499993,363.9586750419985,space,0.3363992920058081,None,363.95909458400274,0.699760958988918,0.9987807919969782,364.9624568750005,364.9649916250055,364.9857999590022,364.9857999590022,364.9857999590022,367.5241982919979,"
74",1,[2.538046667003073],[2.5380494999990333],156803,001,2024-11-14_23h19.21.375,intentional_bonding,2024.2.4,121.46228343977585,2024-11-14 23h19.26.567837 +0530,
0.4,400,exp,45,5,4,space,0.0462791249883594,None,"
28",1,[2.969931290994282],[2.9699338329955935],4,5,45,7,367.5326219169947,,367.5243307089986,367.5326219169947,369.5245972919947,370.5342403340037,371.51641783400555,371.56896449999476,space,0.0462791249883594,None,371.5693821669993,0.40628745900176,0.7057596670056228,372.2800971669931,372.28281795899966,372.3038391250011,372.3038391250011,372.3038391250011,375.27413616700505,"
28",1,[2.969931290994282],[2.9699338329955935],156803,001,2024-11-14_23h19.21.375,intentional_bonding,2024.2.4,121.46228343977585,2024-11-14 23h19.26.567837 +0530,
0.1,400,exp,46,6,4,space,0.5403978340036701,None,"
30",1,[1.3044432500028051],[1.304446000009193],4,6,46,9,375.2824832500046,,375.27426233400183,375.2824832500046,377.2734350840037,378.26948270900175,379.27493404199777,379.81814408399805,space,0.5403978340036701,None,379.81922791700345,0.10603133299446199,0.406408916998771,380.2298214589973,380.23222999999416,380.2527871249913,380.2527871249913,380.2527871249913,381.5575729169941,"
30",1,[1.3044432500028051],[1.304446000009193],156803,001,2024-11-14_23h19.21.375,intentional_bonding,2024.2.4,121.46228343977585,2024-11-14 23h19.26.567837 +0530,
0.1,1000,unexp,47,7,4,space,0.4761561249906663,None,"
45",1,[1.2385733340051956],[1.2385761250043288],4,7,47,3,381.56583858399244,,381.55770608400053,381.56583858399244,383.55665408399364,384.55133724999905,385.5507406669931,386.03610599999956,space,0.4761561249906663,None,386.0373577089922,0.10490525000204798,0.40621695801382884,386.4461455839919,386.44799250000506,386.46849241699965,386.46849241699965,386.46849241699965,387.7073989999917,"
45",1,[1.2385733340051956],[1.2385761250043288],156803,001,2024-11-14_23h19.21.375,intentional_bonding,2024.2.4,121.46228343977585,2024-11-14 23h19.26.567837 +0530,
0.7,1000,unexp,48,8,4,space,0.2564462500013178,None,"
57",1,[1.1449202499934472],[1.1449227499979315],4,8,48,2,387.71581237499777,,387.70752233399253,387.71581237499777,389.70752883399837,390.701640416999,391.7010829170031,391.95954491700104,space,0.2564462500013178,None,391.95997591699415,0.7079191249940777,1.0074253749917261,392.97208470899204,392.97418704199663,392.9950524589949,392.9950524589949,392.9950524589949,394.1402810419968,"
57",1,[1.1449202499934472],[1.1449227499979315],156803,001,2024-11-14_23h19.21.375,intentional_bonding,2024.2.4,121.46228343977585,2024-11-14 23h19.26.567837 +0530,
0.4,1000,unexp,49,9,4,space,1.1074501249968307,None,"
93",1,[2.511655417009024],[2.511658500006888],4,9,49,4,394.1494529170013,,394.1404096250044,394.1494529170013,396.14006554200023,397.13632766700175,398.13376783399144,399.24222062500485,space,1.1074501249968307,None,399.24258520899457,0.4074207499943441,0.7075546249980107,399.9548844999954,399.95729845900496,399.9786484590004,399.9786484590004,399.9786484590004,402.49062008400506,"
93",1,[2.511655417009024],[2.511658500006888],156803,001,2024-11-14_23h19.21.375,intentional_bonding,2024.2.4,121.46228343977585,2024-11-14 23h19.26.567837 +0530,
