delay,freq,condition,thisN,thisTrialN,thisRepN,key_resp.keys,key_resp.rt,key_resp.duration,textbox.text,button.numClicks,button.timesOn,button.timesOff,trials.thisRepN,trials.thisTrialN,trials.thisN,trials.thisIndex,thisRow.t,notes,trial.started,Fixation.started,Fixation.stopped,Polygon.started,key_resp.started,trial.stopped,trials.key_resp.keys,trials.key_resp.rt,trials.key_resp.duration,beep.started,sound_1.started,sound_1.stopped,beep.stopped,response.started,display_text.started,textbox.started,button.started,response.stopped,trials.textbox.text,trials.button.numClicks,trials.button.timesOn,trials.button.timesOff,participant,session,date,expName,psychopyVersion,frameRate,expStart,
0.7,400,exp,0,0,0,space,2.997479541998473,None,"
400",1,[9.112488790997304],[9.112492000000202],0,0,0,8,0.06618195900227875,,0.043681291994289495,0.06618195900227875,2.0878126669995254,2.9979642089892877,4.007866291998653,7.013362749989028,space,2.997479541998473,None,7.013813792000292,0.7068562920030672,1.0062287500040838,8.024818416990456,8.027232666994678,8.082221249991562,8.082221249991562,8.082221249991562,17.195093709000503,"
400",1,[9.112488790997304],[9.112492000000202],1,001,2024-11-14_21h55.51.674,intentional_bonding,2024.2.4,118.51407009814152,2024-11-14 21h56.07.399409 +0530,
0.4,1000,unexp,1,1,0,space,0.9417807909921976,None,"
200",1,[4.535991207987536],[4.535993874989799],0,1,1,1,17.20244720899791,,17.19527729199035,17.20244720899791,19.19341724998958,20.204047624996747,21.194406833994435,22.138873709001928,space,0.9417807909921976,None,22.140036249998957,0.4050813339999877,0.7055144170008134,22.84948637499474,22.852368041989394,22.87368137500016,22.87368137500016,22.87368137500016,27.40998483399744,"
200",1,[4.535991207987536],[4.535993874989799],1,001,2024-11-14_21h55.51.674,intentional_bonding,2024.2.4,118.51407009814152,2024-11-14 21h56.07.399409 +0530,
0.1,400,exp,2,2,0,space,0.16813695800374262,None,"
100",1,[2.3792281659989385],[2.3792309160053264],0,2,2,9,27.418850417001522,,27.410101999994367,27.418850417001522,29.41000395899755,30.40512641699752,31.403454166997108,31.579631959000835,space,0.16813695800374262,None,31.580277999993996,0.10662049999518786,0.40664691699203104,31.99152291700011,31.9935551249946,32.01433429199096,32.01433429199096,32.01433429199096,34.393841791999876,"
100",1,[2.3792281659989385],[2.3792309160053264],1,001,2024-11-14_21h55.51.674,intentional_bonding,2024.2.4,118.51407009814152,2024-11-14 21h56.07.399409 +0530,
0.7,400,exp,3,3,0,space,1.0160895830049412,None,"
500",1,[2.1102587500063237],[2.1102620840101736],0,3,3,5,34.40251533398987,,34.39395849998982,34.40251533398987,36.404692541997065,37.390070249995915,38.387477374999435,39.40611916698981,space,1.0160895830049412,None,39.407075541996164,0.7149588330066763,1.021184125012951,40.42798108399438,40.429627459001495,40.4500637500023,40.4500637500023,40.4500637500023,42.56062637499417,"
500",1,[2.1102587500063237],[2.1102620840101736],1,001,2024-11-14_21h55.51.674,intentional_bonding,2024.2.4,118.51407009814152,2024-11-14 21h56.07.399409 +0530,
0.4,1000,unexp,4,4,0,space,0.2314441250055097,None,"
25",1,[2.7819750829949044],[2.781977749997168],0,4,4,4,42.569030041995575,,42.560756999999285,42.569030041995575,44.5599502499972,45.55565487498825,46.554002708988264,46.7885320839996,space,0.2314441250055097,None,46.78960437499336,0.40648345900990535,0.7154253339977004,47.504906041998765,47.5072306249931,47.52818362499238,47.52818362499238,47.52818362499238,50.31043737499567,"
25",1,[2.7819750829949044],[2.781977749997168],1,001,2024-11-14_21h55.51.674,intentional_bonding,2024.2.4,118.51407009814152,2024-11-14 21h56.07.399409 +0530,
0.7,1000,unexp,5,5,0,space,0.37102170899743214,None,"
100",1,[4.953047874994809],[4.9530510420008795],0,5,5,2,50.31910908399732,,50.31055766699137,50.31910908399732,52.31074770899431,53.305884417000925,54.30400429198926,54.676872458992875,space,0.37102170899743214,None,54.67729579198931,0.7004043750057463,1.0000020839943318,55.68183699999645,55.68436883400136,55.7071754589997,55.7071754589997,55.7071754589997,60.66052174998913,"
100",1,[4.953047874994809],[4.9530510420008795],1,001,2024-11-14_21h55.51.674,intentional_bonding,2024.2.4,118.51407009814152,2024-11-14 21h56.07.399409 +0530,
0.4,400,exp,6,6,0,space,0.6787902089999989,None,"
50",1,[5.603012375009712],[5.6030152500025],0,6,6,7,60.66876395899453,,60.66067291700165,60.66876395899453,62.65972358400177,63.666302416997496,64.6539631249907,65.34112579199427,space,0.6787902089999989,None,65.34264562500175,0.40262795801390894,0.702966542012291,66.04897424999217,66.05107679199136,66.07425137500104,66.07425137500104,66.07425137500104,71.67765570899064,"
50",1,[5.603012375009712],[5.6030152500025],1,001,2024-11-14_21h55.51.674,intentional_bonding,2024.2.4,118.51407009814152,2024-11-14 21h56.07.399409 +0530,
0.1,1000,unexp,7,7,0,space,0.48843075000331737,None,"
20",1,[5.459546290992876],[5.459549291001167],0,7,7,3,71.68542791699292,,71.677813916991,71.68542791699292,73.68780200000037,74.68727070899331,75.68758737499593,76.18981179199181,space,0.48843075000331737,None,76.19133099999453,0.11455029199714772,0.4144878329971107,76.60955662500055,76.61134666699218,76.63364724999701,76.63364724999701,76.63364724999701,82.09357479200116,"
20",1,[5.459546290992876],[5.459549291001167],1,001,2024-11-14_21h55.51.674,intentional_bonding,2024.2.4,118.51407009814152,2024-11-14 21h56.07.399409 +0530,
0.1,1000,unexp,8,8,0,space,0.4656472499918891,None,"
10",1,[2.1543242920015473],[2.154327334006666],0,8,8,0,82.10188191699854,,82.09371387500141,82.10188191699854,84.09289208399423,85.08735224998964,86.0858960839978,86.55426495899155,space,0.4656472499918891,None,86.55540679200203,0.10573899999144487,0.407478084001923,86.96499162499094,86.96697008400224,86.98878062498989,86.98878062498989,86.98878062498989,89.14350479199493,"
10",1,[2.1543242920015473],[2.154327334006666],1,001,2024-11-14_21h55.51.674,intentional_bonding,2024.2.4,118.51407009814152,2024-11-14 21h56.07.399409 +0530,
0.1,400,exp,9,9,0,space,0.07352716699824668,None,"
100",1,[2.7559437500021886],[2.755946999997832],0,9,9,6,89.15206733399827,,89.1436364169931,89.15206733399827,91.14287412499834,92.13707741699181,93.13569258399366,93.21178912499454,space,0.07352716699824668,None,93.21216895899852,0.09934083400003146,0.39846304200182203,93.61483508399397,93.61656029199366,93.63694158400176,93.63694158400176,93.63694158400176,96.39319604200136,"
100",1,[2.7559437500021886],[2.755946999997832],1,001,2024-11-14_21h55.51.674,intentional_bonding,2024.2.4,118.51407009814152,2024-11-14 21h56.07.399409 +0530,
0.1,1000,unexp,10,0,1,space,1.068169083999237,None,"
200",1,[2.605714374993113],[2.605717333004577],1,0,10,0,96.40220916699036,,96.39333904199884,96.40220916699036,98.39277141699858,99.38916754200181,100.38645591698878,101.46162912499858,space,1.068169083999237,None,101.4620602089999,0.1086109169991687,0.41575008400832303,101.87806495898985,101.87969445899944,101.90384562499821,101.90384562499821,101.90384562499821,104.50985699999728,"
200",1,[2.605714374993113],[2.605717333004577],1,001,2024-11-14_21h55.51.674,intentional_bonding,2024.2.4,118.51407009814152,2024-11-14 21h56.07.399409 +0530,
0.4,1000,unexp,11,1,1,space,0.04071562500030268,None,"
200",1,[2.392366750005749],[2.392369916997268],1,1,11,1,104.51834908399906,,104.5100068749889,104.51834908399906,106.51060599999619,107.50395416699757,108.50238258398895,108.546570874998,space,0.04071562500030268,None,108.5476608339959,0.4070078330114484,0.7131259580055485,109.26035274998867,109.26206912499038,109.28399608399195,109.28399608399195,109.28399608399195,111.67666512499272,"
200",1,[2.392366750005749],[2.392369916997268],1,001,2024-11-14_21h55.51.674,intentional_bonding,2024.2.4,118.51407009814152,2024-11-14 21h56.07.399409 +0530,
0.1,1000,unexp,12,2,1,space,0.28876583400415257,None,"
10",1,[1.7505163329915376],[1.7505191669915803],1,2,12,3,111.6851017089939,,111.67678508399695,111.6851017089939,113.67591512500076,114.67241441700025,115.66901504198904,115.96007916699455,space,0.28876583400415257,None,115.96063783399586,0.09990820799430367,0.40052658299100585,116.36466604199086,116.36635066699819,116.39239449999877,116.39239449999877,116.39239449999877,118.14324220900016,"
10",1,[1.7505163329915376],[1.7505191669915803],1,001,2024-11-14_21h55.51.674,intentional_bonding,2024.2.4,118.51407009814152,2024-11-14 21h56.07.399409 +0530,
0.4,400,exp,13,3,1,space,1.2828969169931952,None,"
300",1,[1.719852375012124],[1.7198552500049118],1,3,13,7,118.15192841699172,,118.14336679199187,118.15192841699172,120.14327366699581,121.15333083400037,122.13544145900232,123.42151395899418,space,1.2828969169931952,None,123.42230187499081,0.40537962499365676,0.704611915993155,124.130674,124.13302204199135,124.15623637499812,124.15623637499812,124.15623637499812,125.87644454199472,"
300",1,[1.719852375012124],[1.7198552500049118],1,001,2024-11-14_21h55.51.674,intentional_bonding,2024.2.4,118.51407009814152,2024-11-14 21h56.07.399409 +0530,
0.1,400,exp,14,4,1,space,0.17974870900798123,None,"
300",1,[1.556955833992106],[1.5569587089994457],1,4,14,9,125.8852880839986,,125.87657899998885,125.8852880839986,127.87691449999693,128.87212799998815,129.8686554589949,130.05517045898887,space,0.17974870900798123,None,130.0555874999991,0.10387495798931923,0.4045366669888608,130.4643082919938,130.4664292499947,130.48652495899296,130.48652495899296,130.48652495899296,132.0438057499996,"
300",1,[1.556955833992106],[1.5569587089994457],1,001,2024-11-14_21h55.51.674,intentional_bonding,2024.2.4,118.51407009814152,2024-11-14 21h56.07.399409 +0530,
0.7,1000,unexp,15,5,1,space,0.5683731250028359,None,"
100",1,[7.654332625010284],[7.654335541999899],1,5,15,2,132.0519159589894,,132.04393408399483,132.0519159589894,134.04279354200116,135.0371669169981,136.03553566698974,136.60616170900175,space,0.5683731250028359,None,136.6070731249929,0.7031588749960065,1.0044432499998948,137.61441337499127,137.61682295899664,137.63799558399478,137.63799558399478,137.63799558399478,145.29264800000237,"
100",1,[7.654332625010284],[7.654335541999899],1,001,2024-11-14_21h55.51.674,intentional_bonding,2024.2.4,118.51407009814152,2024-11-14 21h56.07.399409 +0530,
0.4,1000,unexp,16,6,1,space,0.06597916600003373,None,"
200",1,[2.542487250000704],[2.5424904999963474],1,6,16,4,145.30164366700046,,145.2927683750022,145.30164366700046,147.290663458989,148.29759470900171,149.28657945898885,149.353560833988,space,0.06597916600003373,None,149.35394849999284,0.39956900000106543,0.6986127499985741,150.05832808399282,150.06073758398998,150.08338258399453,150.08338258399453,150.08338258399453,152.6262293339969,"
200",1,[2.542487250000704],[2.5424904999963474],1,001,2024-11-14_21h55.51.674,intentional_bonding,2024.2.4,118.51407009814152,2024-11-14 21h56.07.399409 +0530,
0.7,400,exp,17,7,1,space,0.19539120901026763,None,"
500",1,[2.648947291992954],[2.648950791990501],1,7,17,5,152.63508045898925,,152.62635616699117,152.63508045898925,154.6256304589915,155.62094962499395,156.61990066699218,156.82110358399223,space,0.19539120901026763,None,156.8220957089943,0.7049537920102011,1.005777834012406,157.83099249999213,157.83346399999573,157.8606534999999,157.8606534999999,157.8606534999999,160.5099359589949,"
500",1,[2.648947291992954],[2.648950791990501],1,001,2024-11-14_21h55.51.674,intentional_bonding,2024.2.4,118.51407009814152,2024-11-14 21h56.07.399409 +0530,
0.1,400,exp,18,8,1,space,0.46316520900290925,None,"
100",1,[4.3223348329920555],[4.322337665988016],1,8,18,6,160.51805333398806,,160.51006008399418,160.51805333398806,162.50930008399882,163.5036591669923,164.50194779199956,164.97060108400183,space,0.46316520900290925,None,164.97166087500227,0.10571341699687764,0.40520070800266694,165.3807057919912,165.38247608399251,165.40343558399763,165.40343558399763,165.40343558399763,169.72606424998958,"
100",1,[4.3223348329920555],[4.322337665988016],1,001,2024-11-14_21h55.51.674,intentional_bonding,2024.2.4,118.51407009814152,2024-11-14 21h56.07.399409 +0530,
0.7,400,exp,19,9,1,space,1.95936450001318,None,"
700",1,[5.568456000008155],[5.568459665999399],1,9,19,8,169.7348676249967,,169.72619137499714,169.7348676249967,171.72578495899506,172.72085258399602,173.7218293749902,175.68756083399057,space,1.95936450001318,None,175.68855474999873,0.7057826250093058,1.005972416998702,176.69892049999908,176.70156750000024,176.72431129199686,176.72431129199686,176.72431129199686,182.29311474999122,"
700",1,[5.568456000008155],[5.568459665999399],1,001,2024-11-14_21h55.51.674,intentional_bonding,2024.2.4,118.51407009814152,2024-11-14 21h56.07.399409 +0530,
0.4,1000,unexp,20,0,2,space,0.12810745798924472,None,"
75",1,[3.190191750007216],[3.1901947500009555],2,0,20,4,182.301176708992,,182.29324316699058,182.301176708992,184.2929637920024,185.2891095840023,186.28504454198992,186.4200414999941,space,0.12810745798924472,None,186.420490916993,0.4065606249932898,0.7069255829992471,187.13198370899772,187.13398641700041,187.15255370899104,187.15255370899104,187.15255370899104,190.3430435420014,"
75",1,[3.190191750007216],[3.1901947500009555],1,001,2024-11-14_21h55.51.674,intentional_bonding,2024.2.4,118.51407009814152,2024-11-14 21h56.07.399409 +0530,
0.1,1000,unexp,21,1,2,space,0.8173741669888841,None,"
30",1,[3.904765333994874],[3.9047680840012617],2,1,21,0,190.35119654198934,,190.34318604199507,190.35119654198934,192.34317258399096,193.3391431249911,194.33562120900024,195.15534895900055,space,0.8173741669888841,None,195.15638658399985,0.10448516700125765,0.40449804200034123,195.56507179199252,195.56704924999212,195.58744370899512,195.58744370899512,195.58744370899512,199.49255087500205,"
30",1,[3.904765333994874],[3.9047680840012617],1,001,2024-11-14_21h55.51.674,intentional_bonding,2024.2.4,118.51407009814152,2024-11-14 21h56.07.399409 +0530,
0.4,1000,unexp,22,2,2,space,0.8370557080052095,None,"
20",1,[1.81456570798764],[1.814569082998787],2,2,22,1,199.50141208399145,,199.49267183399934,199.50141208399145,201.49348416698922,202.50266683399968,203.48580891700112,204.33789804199478,space,0.8370557080052095,None,204.33921104199544,0.40637108399823774,0.7138474590028636,205.05271783399803,205.05520704199444,205.0776714169915,205.0776714169915,205.0776714169915,206.89253995899344,"
20",1,[1.81456570798764],[1.814569082998787],1,001,2024-11-14_21h55.51.674,intentional_bonding,2024.2.4,118.51407009814152,2024-11-14 21h56.07.399409 +0530,
0.1,400,exp,23,3,2,space,1.8034105410042685,None,"
400",1,[2.8508018749998882],[2.8508055830025114],2,3,23,9,206.90120220898825,,206.89266370898986,206.90120220898825,208.89310262499203,209.88857466699847,210.89428166700236,212.70309866699972,space,1.8034105410042685,None,212.70409145898884,0.10780729199177586,0.4152518750051968,213.11935449999874,213.121311875002,213.14155404199846,213.14155404199846,213.14155404199846,215.99268145899987,"
400",1,[2.8508018749998882],[2.8508055830025114],1,001,2024-11-14_21h55.51.674,intentional_bonding,2024.2.4,118.51407009814152,2024-11-14 21h56.07.399409 +0530,
0.7,400,exp,24,4,2,space,1.3295419579953887,None,"
200",1,[2.0295294170064153],[2.029532417000155],2,4,24,5,216.00104454199027,,215.99281570898893,216.00104454199027,217.99326412499067,218.98650012500002,219.98492916699615,221.32122570899082,space,1.3295419579953887,None,221.32237162499223,0.7049539580038982,1.0048788330022944,222.33119454199914,222.33391783399566,222.36279183399165,222.36279183399165,222.36279183399165,224.39263791700068,"
200",1,[2.0295294170064153],[2.029532417000155],1,001,2024-11-14_21h55.51.674,intentional_bonding,2024.2.4,118.51407009814152,2024-11-14 21h56.07.399409 +0530,
0.7,1000,unexp,25,5,2,space,0.6328797079913784,None,"
300",1,[2.6678067080065375],[2.667809999999008],2,5,25,2,224.40103383400128,,224.39277312500053,224.40103383400128,226.39188970898977,227.40302320900082,228.3853587499907,229.02088145900052,space,0.6328797079913784,None,229.0214509590005,0.7058092500083148,1.0059125000116182,230.0317903339892,230.03419033400132,230.05775370899937,230.05775370899937,230.05775370899937,232.72594520899293,"
300",1,[2.6678067080065375],[2.667809999999008],1,001,2024-11-14_21h55.51.674,intentional_bonding,2024.2.4,118.51407009814152,2024-11-14 21h56.07.399409 +0530,
0.7,400,exp,26,6,2,space,3.49845541700779,None,"
200",1,[2.870240541000385],[2.8702435410086764],2,6,26,8,232.73431095900014,,232.72608583400142,232.73431095900014,234.7270264589897,235.7212239169894,236.71903795898834,240.22163508398808,space,3.49845541700779,None,240.22274479200132,0.7043002910068026,1.0045075000089128,241.2308463340014,241.2330985419976,241.2553187500016,241.2553187500016,241.2553187500016,244.12588166700152,"
200",1,[2.870240541000385],[2.8702435410086764],1,001,2024-11-14_21h55.51.674,intentional_bonding,2024.2.4,118.51407009814152,2024-11-14 21h56.07.399409 +0530,
0.4,400,exp,27,7,2,space,1.1997991249954794,None,"
100",1,[3.5541609590000007],[3.5541638339927886],2,7,27,7,244.1342650000006,,244.12601008400088,244.1342650000006,246.1261560839921,247.13565466699947,248.1180317499966,249.31929270899855,space,1.1997991249954794,None,249.3197813339939,0.40661166700010654,0.7073622080060886,250.03097116699792,250.03390612499788,250.05431912498898,250.05431912498898,250.05431912498898,253.60881779198826,"
100",1,[3.5541609590000007],[3.5541638339927886],1,001,2024-11-14_21h55.51.674,intentional_bonding,2024.2.4,118.51407009814152,2024-11-14 21h56.07.399409 +0530,
0.1,400,exp,28,8,2,space,0.29234045899647754,None,"
40",1,[3.1225034579983912],[3.1225063750025583],2,8,28,6,253.61754870899313,,253.60893945899443,253.61754870899313,255.6093845419964,256.6188169590023,257.6028559169936,257.9042527089914,space,0.29234045899647754,None,257.90540466699167,0.10434950000490062,0.40648416700423695,258.3135319589928,258.3159237499931,258.3366077919927,258.3366077919927,258.3366077919927,261.4594369169936,"
40",1,[3.1225034579983912],[3.1225063750025583],1,001,2024-11-14_21h55.51.674,intentional_bonding,2024.2.4,118.51407009814152,2024-11-14 21h56.07.399409 +0530,
0.1,1000,unexp,29,9,2,space,0.44327187500311993,None,"
30",1,[2.494994749999023],[2.4949987920117564],2,9,29,3,261.46743729199807,,261.45956099999603,261.46743729199807,263.4593462089979,264.4550039589958,265.4510399999999,265.9019381669932,space,0.44327187500311993,None,265.9023689589958,0.09997149999253452,0.39989633299410343,266.30671708399314,266.30882566700166,266.3304870839929,266.3304870839929,266.3304870839929,268.8257929169922,"
30",1,[2.494994749999023],[2.4949987920117564],1,001,2024-11-14_21h55.51.674,intentional_bonding,2024.2.4,118.51407009814152,2024-11-14 21h56.07.399409 +0530,
0.4,1000,unexp,30,0,3,space,0.28353887499542907,None,"
10",1,[3.052215959003661],[3.0522195840021595],3,0,30,4,268.83397700000205,,268.8259208340023,268.83397700000205,270.8240145000018,271.8348960000003,272.8176726249949,273.1034743749915,space,0.28353887499542907,None,273.1046123339911,0.40562087499711197,0.7059185419930145,273.81409408399486,273.81611591699766,273.83938749998924,273.83938749998924,273.83938749998924,276.89196141700086,"
10",1,[3.052215959003661],[3.0522195840021595],1,001,2024-11-14_21h55.51.674,intentional_bonding,2024.2.4,118.51407009814152,2024-11-14 21h56.07.399409 +0530,
0.7,400,exp,31,1,3,space,0.0005070000042906031,None,"
500",1,[3.18675245900522],[3.1867552920011804],3,1,31,8,276.9008062089997,,276.89209012499487,276.9008062089997,278.89254095900105,279.8862834999891,280.88477437499387,280.8869472499937,space,0.0005070000042906031,None,280.88754812499974,0.7058048330072779,1.005768207993242,281.89791733399034,281.9006844999967,281.92153508399497,281.92153508399497,281.92153508399497,285.1086407919938,"
500",1,[3.18675245900522],[3.1867552920011804],1,001,2024-11-14_21h55.51.674,intentional_bonding,2024.2.4,118.51407009814152,2024-11-14 21h56.07.399409 +0530,
0.4,400,exp,32,2,3,space,0.8687322500045411,None,"
400",1,[2.3155384169949684],[2.315541707997909],3,2,32,7,285.11704250000184,,285.1087719999923,285.11704250000184,287.11074066699075,288.10409974999493,289.11010837499634,289.9870099999971,space,0.8687322500045411,None,289.987533624997,0.4060261249978794,0.7151770830096211,290.70312074999674,290.7054462919914,290.7259219999978,290.7259219999978,290.7259219999978,293.0417927919916,"
400",1,[2.3155384169949684],[2.315541707997909],1,001,2024-11-14_21h55.51.674,intentional_bonding,2024.2.4,118.51407009814152,2024-11-14 21h56.07.399409 +0530,
0.1,1000,unexp,33,3,3,space,6.449166917009279,None,"
60",1,[5.006309083997621],[5.006312084005913],3,3,33,3,293.0504696669959,,293.0419172089896,293.0504696669959,295.0419727089902,296.03615029199864,297.0340924589982,303.4873205420008,space,6.449166917009279,None,303.48869670899876,0.1045677919901209,0.4060810419905465,303.89690595900174,303.89882720899186,303.9188978339953,303.9188978339953,303.9188978339953,308.92549862500164,"
60",1,[5.006309083997621],[5.006312084005913],1,001,2024-11-14_21h55.51.674,intentional_bonding,2024.2.4,118.51407009814152,2024-11-14 21h56.07.399409 +0530,
0.7,1000,unexp,34,4,3,space,7.2326015410071705,None,"
500",1,[1.571541958997841],[1.571545166996657],3,4,34,2,308.93383537499176,,308.9256276669912,308.93383537499176,310.9251655419939,311.93524645899015,312.91892724999343,320.15452762499626,space,7.2326015410071705,None,320.155932166992,0.7039925410063006,1.004130208006245,321.1635338339984,321.1657360419922,321.1869049169909,321.1869049169909,321.1869049169909,322.7587458749913,"
500",1,[1.571541958997841],[1.571545166996657],1,001,2024-11-14_21h55.51.674,intentional_bonding,2024.2.4,118.51407009814152,2024-11-14 21h56.07.399409 +0530,
0.1,400,exp,35,5,3,space,0.08368450000125449,None,"
90",1,[3.0372547909937566],[3.0372579579998273],3,5,35,9,322.76725241699023,,322.7588812920003,322.76725241699023,324.7578075420024,325.76842337498965,326.7504434589937,326.83802704200207,space,0.08368450000125449,None,326.8385425419983,0.10390924999956042,0.404081333996146,327.24705974999233,327.24938887498865,327.2702075839916,327.2702075839916,327.2702075839916,330.3077984589909,"
90",1,[3.0372547909937566],[3.0372579579998273],1,001,2024-11-14_21h55.51.674,intentional_bonding,2024.2.4,118.51407009814152,2024-11-14 21h56.07.399409 +0530,
0.4,1000,unexp,36,6,3,space,0.47716166600002907,None,"
900",1,[6.093153457986773],[6.093157666997286],3,6,36,1,330.31676187500125,,330.3079214169993,330.31676187500125,332.30918174999533,333.31873862499197,334.3006089589908,334.78438779199496,space,0.47716166600002907,None,334.7848728749959,0.3999159579980187,0.7004516250017332,335.48956662499404,335.4919355419988,335.5150320419925,335.5150320419925,335.5150320419925,341.60850483398826,"
900",1,[6.093153457986773],[6.093157666997286],1,001,2024-11-14_21h55.51.674,intentional_bonding,2024.2.4,118.51407009814152,2024-11-14 21h56.07.399409 +0530,
0.1,1000,unexp,37,7,3,space,5.891651750003803,None,"
 10",1,[3.822249083998031],[3.822252291996847],3,7,37,0,341.61670154199237,,341.6086318339949,341.61670154199237,343.6087481249997,344.6041579169978,345.60133695899276,351.50436195899965,space,5.891651750003803,None,351.5057956249948,0.1030553340096958,0.40534420900803525,351.91230208399065,351.91462691700144,351.9357331249921,351.9357331249921,351.9357331249921,355.75830866699107,"
 10",1,[3.822249083998031],[3.822252291996847],1,001,2024-11-14_21h55.51.674,intentional_bonding,2024.2.4,118.51407009814152,2024-11-14 21h56.07.399409 +0530,
0.1,400,exp,38,8,3,space,0.45291745899885427,None,"
70",1,[4.459272166990559],[4.459275249988423],3,8,38,6,355.766717874998,,355.75843149999855,355.766717874998,357.7590485839901,358.7513761250011,359.7503945839999,360.2172130419931,space,0.45291745899885427,None,360.2175826669991,0.10117520899802912,0.4081389589991886,360.62597899998946,360.6277195839939,360.6484752089891,360.6484752089891,360.6484752089891,365.1081179999892,"
70",1,[4.459272166990559],[4.459275249988423],1,001,2024-11-14_21h55.51.674,intentional_bonding,2024.2.4,118.51407009814152,2024-11-14 21h56.07.399409 +0530,
0.7,400,exp,39,9,3,space,21.513760500005446,None,"
400",1,[2.904334083010326],[2.9043375000037486],3,9,39,5,365.1165869589895,,365.1082434169948,365.1165869589895,367.1081640420016,368.1182914999954,369.1014879169961,390.620385666989,space,21.513760500005446,None,390.62122141699365,0.7037332500040065,1.004794167005457,391.62897174998943,391.6310317919997,391.65292562499235,391.65292562499235,391.65292562499235,394.55757299999823,"
400",1,[2.904334083010326],[2.9043375000037486],1,001,2024-11-14_21h55.51.674,intentional_bonding,2024.2.4,118.51407009814152,2024-11-14 21h56.07.399409 +0530,
0.7,400,exp,40,0,4,space,0.5238536249962635,None,"
200",1,[2.395397625004989],[2.3954005840059835],4,0,40,8,394.56649645899597,,394.55770174998906,394.56649645899597,396.55767058399215,397.55356012500124,398.5502494999964,399.07765012499294,space,0.5238536249962635,None,399.07845379199716,0.7060539160011103,1.0070413329958683,400.08902895900246,400.09154316700005,400.1122943340015,400.1122943340015,400.1122943340015,402.50798199999554,"
200",1,[2.395397625004989],[2.3954005840059835],1,001,2024-11-14_21h55.51.674,intentional_bonding,2024.2.4,118.51407009814152,2024-11-14 21h56.07.399409 +0530,
0.1,400,exp,41,1,4,space,1.8727592079958413,None,"
10",1,[1.902198708994547],[1.9022024589939974],4,1,41,9,402.51634649999323,,402.50810533399635,402.51634649999323,404.50931579199096,405.50317524999264,406.5016314589884,408.3753013339883,space,1.8727592079958413,None,408.37574695899093,0.09971570799825713,0.40009216699399985,408.77998291699623,408.78226300000097,408.80560154200066,408.80560154200066,408.80560154200066,410.70810120899114,"
10",1,[1.902198708994547],[1.9022024589939974],1,001,2024-11-14_21h55.51.674,intentional_bonding,2024.2.4,118.51407009814152,2024-11-14 21h56.07.399409 +0530,
0.1,1000,unexp,42,2,4,space,0.18374033299915027,None,"
50",1,[2.1714604580047308],[2.1714639170095325],4,2,42,0,410.71633791699423,,410.70822954199684,410.71633791699423,412.708923083992,413.70404916699044,414.70006104199274,414.8864652499906,space,0.18374033299915027,None,414.88751599998795,0.10499675000028219,0.405412541993428,415.29659762499796,415.2989522919961,415.31917962498846,415.31917962498846,415.31917962498846,417.4909517089982,"
50",1,[2.1714604580047308],[2.1714639170095325],1,001,2024-11-14_21h55.51.674,intentional_bonding,2024.2.4,118.51407009814152,2024-11-14 21h56.07.399409 +0530,
0.7,400,exp,43,3,4,space,0.48150562499358784,None,"
800",1,[2.6028971250052564],[2.6029003340081545],4,3,43,5,417.49990545900073,,417.49107487499714,417.49990545900073,419.4902907499927,420.5010899589979,421.4843246669916,421.9704112920008,space,0.48150562499358784,None,421.9714821249945,0.7046808750019409,1.0039393330080202,422.97933408399695,422.98191729199607,423.0039078749978,423.0039078749978,423.0039078749978,425.6071163750021,"
800",1,[2.6028971250052564],[2.6029003340081545],1,001,2024-11-14_21h55.51.674,intentional_bonding,2024.2.4,118.51407009814152,2024-11-14 21h56.07.399409 +0530,
0.4,400,exp,44,4,4,space,0.16647908299637493,None,"
50",1,[3.858148875006009],[3.8581517499987967],4,4,44,7,425.6165530839935,,425.6072379589896,425.6165530839935,427.6071518749959,428.6038185419893,429.6011287919973,429.7699954999989,space,0.16647908299637493,None,429.77131954199285,0.4149548749992391,0.721482749999268,430.4922823340021,430.4944108339987,430.516285042002,430.516285042002,430.516285042002,434.37480220900034,"
50",1,[3.858148875006009],[3.8581517499987967],1,001,2024-11-14_21h55.51.674,intentional_bonding,2024.2.4,118.51407009814152,2024-11-14 21h56.07.399409 +0530,
0.4,1000,unexp,45,5,4,space,0.7674465000018245,None,"
60",1,[1.7293386250094045],[1.7293421250069514],4,5,45,4,434.38268591699307,,434.37492999999085,434.38268591699307,436.3744637089985,437.38439379198826,438.36781129200244,439.14312045898987,space,0.7674465000018245,None,439.1435225419991,0.4069512089918135,0.7069853749999311,439.8550715839956,439.8573614170018,439.8780907499895,439.8780907499895,439.8780907499895,441.6077864589897,"
60",1,[1.7293386250094045],[1.7293421250069514],1,001,2024-11-14_21h55.51.674,intentional_bonding,2024.2.4,118.51407009814152,2024-11-14 21h56.07.399409 +0530,
0.7,1000,unexp,46,6,4,space,0.12011000000347849,None,"
20",1,[1.8885385830071755],[1.888541874999646],4,6,46,2,441.6160888750019,,441.6079095000023,441.6160888750019,443.6072788339952,444.60312262499065,445.60082266699465,445.7251192499971,space,0.12011000000347849,None,445.72548904200085,0.6996070000022883,0.9989857909968123,446.72907387500163,446.7314358750009,446.75204875000054,446.75204875000054,446.75204875000054,448.64088170899777,"
20",1,[1.8885385830071755],[1.888541874999646],1,001,2024-11-14_21h55.51.674,intentional_bonding,2024.2.4,118.51407009814152,2024-11-14 21h56.07.399409 +0530,
0.1,400,exp,47,7,4,space,1.2608147080027265,None,"
500",1,[2.9736672500002896],[2.973670708001009],4,7,47,6,448.6492677919887,,448.64100624999264,448.6492677919887,450.64013629200053,451.6362401249935,452.6337770419923,453.902251291991,space,1.2608147080027265,None,453.90262658399297,0.10566212500270922,0.40576212499581743,454.3127428750013,454.3143640420021,454.3342919169954,454.3342919169954,454.3342919169954,457.30830341699766,"
500",1,[2.9736672500002896],[2.973670708001009],1,001,2024-11-14_21h55.51.674,intentional_bonding,2024.2.4,118.51407009814152,2024-11-14 21h56.07.399409 +0530,
0.1,1000,unexp,48,8,4,space,0.8168103339994559,None,"
35",1,[5.421674917000928],[5.421678124999744],4,8,48,3,457.3160889589926,,457.3084279169998,457.3160889589926,459.3075201249885,460.31800600000133,461.2997495419986,462.1196441249922,space,0.8168103339994559,None,462.120710874995,0.1039460829924792,0.40409183299925644,462.528624958999,462.5305994169903,462.5515567919938,462.5515567919938,462.5515567919938,467.97358495899243,"
35",1,[5.421674917000928],[5.421678124999744],1,001,2024-11-14_21h55.51.674,intentional_bonding,2024.2.4,118.51407009814152,2024-11-14 21h56.07.399409 +0530,
0.4,1000,unexp,49,9,4,space,0.26588166601140983,None,"
40",1,[2.5796451670030365],[2.5796484169986797],4,9,49,1,467.9824822090013,,467.9737127499975,467.9824822090013,469.97489074998884,470.968809041995,471.966260125002,472.2337833749916,space,0.26588166601140983,None,472.23414512499585,0.3992482080066111,0.6992655000067316,472.93802391699865,472.93989199999487,472.9601665419905,472.9601665419905,472.9601665419905,475.54011474999425,"
40",1,[2.5796451670030365],[2.5796484169986797],1,001,2024-11-14_21h55.51.674,intentional_bonding,2024.2.4,118.51407009814152,2024-11-14 21h56.07.399409 +0530,
0.7,1000,unexp,50,0,5,space,1.024563290993683,None,"
70",1,[5.1424399170064135],[5.142443250006181],5,0,50,2,475.54905545899237,,475.5402351669909,475.54905545899237,477.5406192919909,478.55113224999513,479.542971124989,480.5710698749899,space,1.024563290993683,None,480.57227999999304,0.7135604579962092,1.013407708000159,481.589762167001,481.59225524999783,481.61469020899676,481.61469020899676,481.61469020899676,486.75750304199755,"
70",1,[5.1424399170064135],[5.142443250006181],1,001,2024-11-14_21h55.51.674,intentional_bonding,2024.2.4,118.51407009814152,2024-11-14 21h56.07.399409 +0530,
0.4,400,exp,51,1,5,space,0.11597370800154749,None,"
95",1,[6.8209511669992935],[6.820954166993033],5,1,51,7,486.7657163749973,,486.7577064999932,486.7657163749973,488.7574884999922,489.75171870899794,490.7512954589911,490.8709474999923,space,0.11597370800154749,None,490.8723073750007,0.40418545799911954,0.7040678750054212,491.57978366699535,491.5824900000007,491.60284933399817,491.60284933399817,491.60284933399817,498.4240980839968,"
95",1,[6.8209511669992935],[6.820954166993033],1,001,2024-11-14_21h55.51.674,intentional_bonding,2024.2.4,118.51407009814152,2024-11-14 21h56.07.399409 +0530,
0.1,1000,unexp,52,2,5,space,5.989282041002298,None,"
15",1,[4.306017957991571],[4.306021290991339],5,2,52,0,498.43246504200215,,498.42422824999085,498.43246504200215,500.42432399999234,501.4193912920018,502.42648566699063,508.4179414169921,space,5.989282041002298,None,508.41919545899145,0.1056569169886643,0.40610212499450427,508.82888449999155,508.83059354199213,508.85039599999436,508.85039599999436,508.85039599999436,513.1567110839969,"
15",1,[4.306017957991571],[4.306021290991339],1,001,2024-11-14_21h55.51.674,intentional_bonding,2024.2.4,118.51407009814152,2024-11-14 21h56.07.399409 +0530,
0.1,400,exp,53,3,5,space,5.3808013329980895,None,"
25",1,[2.68710154099972],[2.687104457989335],5,3,53,9,513.1657098339929,,513.1568318339996,513.1657098339929,515.1564562919957,516.1513600420003,517.150747791995,522.5357847089908,space,5.3808013329980895,None,522.5367734169995,0.10437541600549594,0.4048585410055239,522.9449964169908,522.9470123749925,522.9692484999978,522.9692484999978,522.9692484999978,525.656678208994,"
25",1,[2.68710154099972],[2.687104457989335],1,001,2024-11-14_21h55.51.674,intentional_bonding,2024.2.4,118.51407009814152,2024-11-14 21h56.07.399409 +0530,
0.4,1000,unexp,54,4,5,space,1.248150708997855,None,"
55",1,[1.8366266250086483],[1.8366295830055606],5,4,54,1,525.6657063749881,,525.6568068339984,525.6657063749881,527.6565312919993,528.6516323339893,529.6490623339923,530.9024550839968,space,1.248150708997855,None,530.903710833998,0.40562199999112636,0.7062749589968007,531.6134749170014,531.6160795420001,531.6369688749983,531.6369688749983,531.6369688749983,533.4739247499965,"
55",1,[1.8366266250086483],[1.8366295830055606],1,001,2024-11-14_21h55.51.674,intentional_bonding,2024.2.4,118.51407009814152,2024-11-14 21h56.07.399409 +0530,
0.1,400,exp,55,5,5,space,0.25146929098991677,None,"
45",1,[1.7224465000035707],[1.722449917011545],5,5,55,6,533.4821150839998,,533.474053375001,533.4821150839998,535.4740202089888,536.4678945839987,537.4753770839889,537.734375791988,space,0.25146929098991677,None,537.7351389999967,0.10592329200881068,0.4072166670084698,538.1454016669886,538.1471139589994,538.1675788749999,538.1675788749999,538.1675788749999,539.8903270419978,"
45",1,[1.7224465000035707],[1.722449917011545],1,001,2024-11-14_21h55.51.674,intentional_bonding,2024.2.4,118.51407009814152,2024-11-14 21h56.07.399409 +0530,
0.1,1000,unexp,56,6,5,space,4.164125665993197,None,"
65",1,[11.93838966700423],[11.938392583004315],5,6,56,3,539.898659833998,,539.8904490419955,539.898659833998,541.8905581669969,542.9002999169898,543.8842605839891,548.053060374994,space,4.164125665993197,None,548.0540722089936,0.10308170899224933,0.40459283399104606,548.4612756669958,548.4633182919933,548.4851523749967,548.4851523749967,548.4851523749967,560.4238816249999,"
65",1,[11.93838966700423],[11.938392583004315],1,001,2024-11-14_21h55.51.674,intentional_bonding,2024.2.4,118.51407009814152,2024-11-14 21h56.07.399409 +0530,
0.7,400,exp,57,7,5,space,2.126108791009756,None,"
80",1,[11.352902667000308],[11.352906750005786],5,7,57,8,560.4318605000008,,560.4240019999997,560.4318605000008,562.4241090839932,563.4288506250014,564.4172954999958,566.5520885419974,space,2.126108791009756,None,566.553377291988,0.7047840000013821,1.004652707997593,567.5619765419979,567.5646757919894,567.587236249994,567.587236249994,567.587236249994,578.9404705839988,"
80",1,[11.352902667000308],[11.352906750005786],1,001,2024-11-14_21h55.51.674,intentional_bonding,2024.2.4,118.51407009814152,2024-11-14 21h56.07.399409 +0530,
0.4,1000,unexp,58,8,5,space,0.21855175000382587,None,"
60",1,[4.2924486250121845],[4.292451917004655],5,8,58,4,578.9485608339892,,578.9406395839906,578.9485608339892,580.9402797919902,581.9340148749907,582.9321205839951,583.1613151669881,space,0.21855175000382587,None,583.1617067920015,0.4055982080026297,0.7123827500035986,583.8743543750024,583.8761657919968,583.8979374589981,583.8979374589981,583.8979374589981,588.1907314169948,"
60",1,[4.2924486250121845],[4.292451917004655],1,001,2024-11-14_21h55.51.674,intentional_bonding,2024.2.4,118.51407009814152,2024-11-14 21h56.07.399409 +0530,
0.7,400,exp,59,9,5,space,0.1882552089955425,None,"
60",1,[6.111685000010766],[6.111687958007678],5,9,59,5,588.1983936670003,,588.1908604589989,588.1983936670003,590.1897335419926,591.1853386669973,592.1839920839993,592.3751407919917,space,0.1882552089955425,None,592.3755489169998,0.7072236250096466,1.0071466250083176,593.3875350000017,593.389994083991,593.411004249996,593.411004249996,593.411004249996,599.5230023339973,"
60",1,[6.111685000010766],[6.111687958007678],1,001,2024-11-14_21h55.51.674,intentional_bonding,2024.2.4,118.51407009814152,2024-11-14 21h56.07.399409 +0530,
0.7,1000,unexp,60,0,6,space,1.3821000829921104,None,"
64",1,[7.442373124998994],[7.44237633299781],6,0,60,2,599.532067084001,,599.5231231669895,599.532067084001,601.5226622089976,602.5161443749967,603.5240683750017,604.9096687499987,space,1.3821000829921104,None,604.9100931669964,0.7059235000051558,1.005944083997747,605.9209402919951,605.9233265419898,605.947046041998,605.947046041998,605.947046041998,613.3897951669933,"
64",1,[7.442373124998994],[7.44237633299781],1,001,2024-11-14_21h55.51.674,intentional_bonding,2024.2.4,118.51407009814152,2024-11-14 21h56.07.399409 +0530,
0.1,1000,unexp,61,1,6,space,0.5635718340054154,None,"
34 ",1,[2.8693967500003055],[2.869399749994045],6,1,61,0,613.3982999589934,,613.389929625002,613.3982999589934,615.400380209001,616.4004601670022,617.3902872920007,617.9567447089939,space,0.5635718340054154,None,617.957227958992,0.09994629200082272,0.40052737499354407,618.3620782090002,618.3645161250024,618.3867780839937,618.3867780839937,618.3867780839937,621.2565287499892,"
34 ",1,[2.8693967500003055],[2.869399749994045],1,001,2024-11-14_21h55.51.674,intentional_bonding,2024.2.4,118.51407009814152,2024-11-14 21h56.07.399409 +0530,
0.1,1000,unexp,62,2,6,space,0.12499791700975038,None,"
25",1,[2.5629653750074795],[2.562968209007522],6,2,62,3,621.2648049589916,,621.256657209,621.2648049589916,623.2560617089912,624.2492899589997,625.248476333989,625.376099000001,space,0.12499791700975038,None,625.3770836249896,0.10666904199752025,0.4061268749937881,625.7873340419901,625.7894147499901,625.8097435419913,625.8097435419913,625.8097435419913,628.3730024999968,"
25",1,[2.5629653750074795],[2.562968209007522],1,001,2024-11-14_21h55.51.674,intentional_bonding,2024.2.4,118.51407009814152,2024-11-14 21h56.07.399409 +0530,
0.1,400,exp,63,3,6,space,0.9172872499912046,None,"
700",1,[1.9105736659985268],[1.9105773749906803],6,3,63,6,628.3814392919885,,628.373125291997,628.3814392919885,630.3728847919992,631.3674643749982,632.3661182499927,633.2855933339888,space,0.9172872499912046,None,633.2860288749944,0.10329991699836683,0.4065711250004824,633.6932807499979,633.6947543749993,633.7118820420001,633.7118820420001,633.7118820420001,635.622755791992,"
700",1,[1.9105736659985268],[1.9105773749906803],1,001,2024-11-14_21h55.51.674,intentional_bonding,2024.2.4,118.51407009814152,2024-11-14 21h56.07.399409 +0530,
0.7,400,exp,64,4,6,space,0.44346104199939873,None,"
86",1,[2.4049693330016453],[2.4049722499912605],6,4,64,8,635.6313122919964,,635.6228853339999,635.6313122919964,637.6232049999962,638.6162016669987,639.6152096669975,640.0679663339979,space,0.44346104199939873,None,640.0687885419902,0.7056608330021845,1.0049755419895519,641.0776133749896,641.0793792499899,641.1014349999896,641.1014349999896,641.1014349999896,643.5067727919959,"
86",1,[2.4049693330016453],[2.4049722499912605],1,001,2024-11-14_21h55.51.674,intentional_bonding,2024.2.4,118.51407009814152,2024-11-14 21h56.07.399409 +0530,
0.4,1000,unexp,65,5,6,space,0.01834904200222809,None,"
56",1,[2.288214209009311],[2.2882175840059062],6,5,65,4,643.5147722089896,,643.5069000419899,643.5147722089896,645.5062659169926,646.4995009999984,647.4983697499993,647.523511499996,space,0.01834904200222809,None,647.5240044169914,0.39961079199565575,0.6992745419993298,648.2277402089967,648.2303872089979,648.2505872089969,648.2505872089969,648.2505872089969,650.539135125,"
56",1,[2.288214209009311],[2.2882175840059062],1,001,2024-11-14_21h55.51.674,intentional_bonding,2024.2.4,118.51407009814152,2024-11-14 21h56.07.399409 +0530,
0.7,400,exp,66,6,6,space,0.26277545900666155,None,"
48",1,[1.2026975420012604],[1.20270100000198],6,6,66,5,650.5481478339934,,650.5392580420012,650.5481478339934,652.5399132500024,653.5319592089945,654.5323613749933,654.8013702919998,space,0.26277545900666155,None,654.8026799999934,0.7061079580016667,1.0053052909934195,655.811970625,655.8147822089959,655.836048333993,655.836048333993,655.836048333993,657.0390702089935,"
48",1,[1.2026975420012604],[1.20270100000198],1,001,2024-11-14_21h55.51.674,intentional_bonding,2024.2.4,118.51407009814152,2024-11-14 21h56.07.399409 +0530,
0.1,400,exp,67,7,6,space,0.16164266600389965,None,"
23",1,[2.4421667919959873],[2.4421703749976587],6,7,67,9,657.048112916993,,657.0391977499967,657.048112916993,659.0394014170015,660.0337840419961,661.0315852919884,661.2004522499919,space,0.16164266600389965,None,661.2016157089965,0.0991146669985028,0.4052686249924591,661.6063465420011,661.6076838339941,661.630896083996,661.630896083996,661.630896083996,664.0734248749941,"
23",1,[2.4421667919959873],[2.4421703749976587],1,001,2024-11-14_21h55.51.674,intentional_bonding,2024.2.4,118.51407009814152,2024-11-14 21h56.07.399409 +0530,
0.4,1000,unexp,68,8,6,space,0.17676312501134817,None,"
90",1,[1.8366787919949275],[1.8366823340038536],6,8,68,1,664.0812098749884,,664.073550666988,664.0812098749884,666.0724780839955,667.0669015000021,668.0660094589985,668.2514272919943,space,0.17676312501134817,None,668.2522443749913,0.4051112919987645,0.70591983399936,668.9625286249939,668.9650110840012,668.9858077089884,668.9858077089884,668.9858077089884,670.8228115419915,"
90",1,[1.8366787919949275],[1.8366823340038536],1,001,2024-11-14_21h55.51.674,intentional_bonding,2024.2.4,118.51407009814152,2024-11-14 21h56.07.399409 +0530,
0.4,400,exp,69,9,6,space,0.2839342919905903,None,"
86",1,[2.229316208002274],[2.2293192079960136],6,9,69,7,670.8309817919944,,670.8229531669931,670.8309817919944,672.8233798750007,673.8163430419954,674.8181227499881,675.1099896669912,space,0.2839342919905903,None,675.1110907089897,0.4055251250101719,0.7052546670020092,675.8204682919895,675.8229267089919,675.843451875,675.843451875,675.843451875,678.073098333989,"
86",1,[2.229316208002274],[2.2293192079960136],1,001,2024-11-14_21h55.51.674,intentional_bonding,2024.2.4,118.51407009814152,2024-11-14 21h56.07.399409 +0530,
0.1,400,exp,70,0,7,space,0.3800648330070544,None,"
43",1,[26.75455399999919],[26.754556874991977],7,0,70,6,678.0811811669992,,678.0732282089884,678.0811811669992,680.0741815419897,681.066300749997,682.0662589999993,682.4513657089992,space,0.3800648330070544,None,682.4525283749972,0.10448312498920131,0.4050130419927882,682.8609678749926,682.8635165839951,682.8842451669916,682.8842451669916,682.8842451669916,709.6391140420019,"
43",1,[26.75455399999919],[26.754556874991977],1,001,2024-11-14_21h55.51.674,intentional_bonding,2024.2.4,118.51407009814152,2024-11-14 21h56.07.399409 +0530,
0.7,400,exp,71,1,7,space,0.9121095420123311,None,100,1,[14.13521429100365],[14.135217666000244],7,1,71,5,709.64747299999,,709.6392456249887,709.64747299999,711.6397470419906,712.6318844170019,713.6310952919885,714.5515564999951,space,0.9121095420123311,None,714.552962709,0.7053921670012642,1.0055495840060757,715.5622069169913,715.564910791989,715.5869486250012,715.5869486250012,715.5869486250012,729.7225241669948,100,1,[14.13521429100365],[14.135217666000244],1,001,2024-11-14_21h55.51.674,intentional_bonding,2024.2.4,118.51407009814152,2024-11-14 21h56.07.399409 +0530,
0.4,1000,unexp,72,2,7,space,6.942455374999554,None,"
65",1,[4.861935833992902],[4.861939249996794],7,2,72,1,729.7307927919901,,729.7226628749922,729.7307927919901,731.722032583988,732.7152605419978,733.7150369589945,740.6648467920022,space,6.942455374999554,None,740.6652392919932,0.4007654589950107,0.6999867089907639,741.3699342499895,741.3722994589916,741.393316583999,741.393316583999,741.393316583999,746.255575541989,"
65",1,[4.861935833992902],[4.861939249996794],1,001,2024-11-14_21h55.51.674,intentional_bonding,2024.2.4,118.51407009814152,2024-11-14 21h56.07.399409 +0530,
0.1,1000,unexp,73,3,7,space,0.258780709002167,None,"
87",1,[7.760057624996989],[7.760061291992315],7,3,73,3,746.2638568339898,,746.2557060419931,746.2638568339898,748.2660374589905,749.2499370000005,750.2479068749963,750.5087185000011,space,0.258780709002167,None,750.50969979199,0.10699091698916163,0.413215874999878,750.922634083996,750.9241672919889,750.944960208988,750.944960208988,750.944960208988,758.7053515839943,"
87",1,[7.760057624996989],[7.760061291992315],1,001,2024-11-14_21h55.51.674,intentional_bonding,2024.2.4,118.51407009814152,2024-11-14 21h56.07.399409 +0530,
0.4,400,exp,74,4,7,space,3.179813832990476,None,"
90",1,[7.103875375003554],[7.103878709007404],7,4,74,7,758.7137957090017,,758.7054762499902,758.7137957090017,760.70575379199,761.7008945419948,762.6982427499897,765.8822994590009,space,3.179813832990476,None,765.882734999992,0.4063004999916302,0.7073682499903953,766.5935138749919,766.5961552919907,766.6175584169978,766.6175584169978,766.6175584169978,773.7217791669973,"
90",1,[7.103875375003554],[7.103878709007404],1,001,2024-11-14_21h55.51.674,intentional_bonding,2024.2.4,118.51407009814152,2024-11-14 21h56.07.399409 +0530,
0.7,1000,unexp,75,5,7,space,0.28371466700627934,None,"
45",1,[2.6701205410063267],[2.6701233750063693],7,5,75,2,773.7304223749961,,773.7219022499921,773.7304223749961,775.7223869169975,776.7320406249928,777.7156477919925,778.0054306249949,space,0.28371466700627934,None,778.0062605839921,0.7010584170056973,1.0002464999997756,779.0107729589945,779.0135178749915,779.034655874988,779.034655874988,779.034655874988,781.7050878750015,"
45",1,[2.6701205410063267],[2.6701233750063693],1,001,2024-11-14_21h55.51.674,intentional_bonding,2024.2.4,118.51407009814152,2024-11-14 21h56.07.399409 +0530,
0.4,1000,unexp,76,6,7,space,0.19787187500332948,None,"
600 ",1,[2.7105702080007177],[2.7105730420007603],7,6,76,4,781.7136328749912,,781.705208083993,781.7136328749912,783.705752875001,784.6992199169908,785.6974341249879,785.9000368339912,space,0.19787187500332948,None,785.9007854169904,0.4157791250036098,0.7150818340014666,786.6199512499879,786.622117958992,786.6442450839968,786.6442450839968,786.6442450839968,789.3551194999891,"
600 ",1,[2.7105702080007177],[2.7105730420007603],1,001,2024-11-14_21h55.51.674,intentional_bonding,2024.2.4,118.51407009814152,2024-11-14 21h56.07.399409 +0530,
0.7,400,exp,77,7,7,space,0.46348000000580214,None,"
700",1,[4.22863574999792],[4.228639124994515],7,7,77,8,789.3635457919881,,789.3552405840019,789.3635457919881,791.3654365839902,792.3508755419898,793.35893987499,793.8252767919912,space,0.46348000000580214,None,793.8260739999969,0.7056414169928757,1.0053404589998536,794.8359447919938,794.8383447090018,794.8590512919909,794.8590512919909,794.8590512919909,799.0880014169961,"
700",1,[4.22863574999792],[4.228639124994515],1,001,2024-11-14_21h55.51.674,intentional_bonding,2024.2.4,118.51407009814152,2024-11-14 21h56.07.399409 +0530,
0.1,1000,unexp,78,8,7,space,2.2242240409977967,None,"
80",1,[2.445416957998532],[2.445420040996396],7,8,78,0,799.0971842500003,,799.088127666997,799.0971842500003,801.0882310839952,802.098378374998,803.0814367089915,805.3091597089951,space,2.2242240409977967,None,805.3102430839936,0.10588891600491479,0.4060144999966724,805.7204516669881,805.7226206249907,805.742956749993,805.742956749993,805.742956749993,808.1887747089932,"
80",1,[2.445416957998532],[2.445420040996396],1,001,2024-11-14_21h55.51.674,intentional_bonding,2024.2.4,118.51407009814152,2024-11-14 21h56.07.399409 +0530,
0.1,400,exp,79,9,7,space,0.6213734170014504,None,"
20",1,[2.2461701659922255],[2.246173249994172],7,9,79,9,808.1969275839947,,808.1888990839943,808.1969275839947,810.1893302499957,811.198336417001,812.1821988339943,812.8069140000007,space,0.6213734170014504,None,812.8073246669956,0.1079841249884339,0.4072209159930935,813.2193727089907,813.2216076249897,813.2419980839913,813.2419980839913,813.2419980839913,815.4884892499977,"
20",1,[2.2461701659922255],[2.246173249994172],1,001,2024-11-14_21h55.51.674,intentional_bonding,2024.2.4,118.51407009814152,2024-11-14 21h56.07.399409 +0530,
0.7,1000,unexp,80,0,8,space,0.5178822919988306,None,"
700",1,[2.044909457996255],[2.044912375000422],8,0,80,2,815.4967537499906,,815.4886141249881,815.4967537499906,817.4876960839902,818.4830090839969,819.4804721669934,820.0067462089937,space,0.5178822919988306,None,820.0071034589928,0.7072226669988595,1.0085758329951204,821.0192315000022,821.0217755839985,821.0431952919898,821.0431952919898,821.0431952919898,823.0884345840022,"
700",1,[2.044909457996255],[2.044912375000422],1,001,2024-11-14_21h55.51.674,intentional_bonding,2024.2.4,118.51407009814152,2024-11-14 21h56.07.399409 +0530,
0.1,1000,unexp,81,1,8,space,1.7317386669892585,None,"
10",1,[4.589263874993776],[4.589266750001116],8,1,81,0,823.0967694169958,,823.0885584169882,823.0967694169958,825.0883038339962,826.0806551249989,827.0818774590007,828.8170815420017,space,1.7317386669892585,None,828.8182321669883,0.10435729200253263,0.40603366699360777,829.2263604589971,829.2279740419908,829.2484651669947,829.2484651669947,829.2484651669947,833.8380897919997,"
10",1,[4.589263874993776],[4.589266750001116],1,001,2024-11-14_21h55.51.674,intentional_bonding,2024.2.4,118.51407009814152,2024-11-14 21h56.07.399409 +0530,
0.1,1000,unexp,82,2,8,space,0.07617341598961502,None,"
70",1,[5.527357166996808],[5.527360167005099],8,2,82,3,833.8465986669908,,833.8382191249984,833.8465986669908,835.8375618339924,836.8323752919969,837.8313293749961,837.9158124589885,space,0.07617341598961502,None,837.9165788339888,0.09930625000561122,0.4054256250092294,838.3218448749976,838.323126791991,838.3438028749952,838.3438028749952,838.3438028749952,843.8714796669956,"
70",1,[5.527357166996808],[5.527360167005099],1,001,2024-11-14_21h55.51.674,intentional_bonding,2024.2.4,118.51407009814152,2024-11-14 21h56.07.399409 +0530,
0.1,400,exp,83,3,8,space,0.3557326669979375,None,67,1,[10.909675208007684],[10.909678167008678],8,3,83,9,843.8799102499906,,843.8716071249946,843.8799102499906,845.8717963340023,846.8637963749934,847.8817926670017,848.2395647919911,space,0.3557326669979375,None,848.2399660840019,0.10871445799421053,0.4155479170003673,848.6557133749884,848.6570260839944,848.6782748749974,848.6782748749974,848.6782748749974,859.5883102919906,67,1,[10.909675208007684],[10.909678167008678],1,001,2024-11-14_21h55.51.674,intentional_bonding,2024.2.4,118.51407009814152,2024-11-14 21h56.07.399409 +0530,
0.1,400,exp,84,4,8,space,14.063198124989867,None,"
45",1,[2.921236541995313],[2.921239792005508],8,4,84,6,859.5964502499992,,859.5884404999961,859.5964502499992,861.5884519999963,862.582799041993,863.5806368339981,877.6504772499902,space,14.063198124989867,None,877.650846708988,0.10408191601163708,0.40592841600300744,878.0593875420018,878.0614787090017,878.0827918339928,878.0827918339928,878.0827918339928,881.0043887089996,"
45",1,[2.921236541995313],[2.921239792005508],1,001,2024-11-14_21h55.51.674,intentional_bonding,2024.2.4,118.51407009814152,2024-11-14 21h56.07.399409 +0530,
0.4,400,exp,85,5,8,space,0.4024729170050705,None,"
70",1,[8.645175708006718],[8.64517900001374],8,5,85,7,881.012749417001,,881.0045205419883,881.012749417001,883.0049993339926,883.9978532089881,884.997747166999,885.407944666993,space,0.4024729170050705,None,885.408746999994,0.4054887499951292,0.7055580419983016,886.1186559170019,886.121032916999,886.1418997089932,886.1418997089932,886.1418997089932,894.7874092499987,"
70",1,[8.645175708006718],[8.64517900001374],1,001,2024-11-14_21h55.51.674,intentional_bonding,2024.2.4,118.51407009814152,2024-11-14 21h56.07.399409 +0530,
0.7,400,exp,86,6,8,space,0.7895399579865625,None,"
25",1,[3.2625061250000726],[3.262509708001744],8,6,86,5,894.7962135419948,,894.7875882090011,894.7962135419948,896.7871551249991,897.7806974999985,898.7799070839974,899.5725169590005,space,0.7895399579865625,None,899.573048249993,0.7075866249942919,1.0074484159995336,900.5853997499944,900.5876794590004,900.6084092919918,900.6084092919918,900.6084092919918,903.871271208991,"
25",1,[3.2625061250000726],[3.262509708001744],1,001,2024-11-14_21h55.51.674,intentional_bonding,2024.2.4,118.51407009814152,2024-11-14 21h56.07.399409 +0530,
0.7,400,exp,87,7,8,space,1.090106542003923,None,"
67",1,[4.520557875002851],[4.520561708995956],8,7,87,8,903.8793182090012,,903.8714007919916,903.8793182090012,905.870451041992,906.8666586249892,907.8730112089979,908.9696402499976,space,1.090106542003923,None,908.9710233340011,0.701467250008136,1.00092725000286,909.9754796249908,909.9777329999924,909.9995524999977,909.9995524999977,909.9995524999977,914.5204634999973,"
67",1,[4.520557875002851],[4.520561708995956],1,001,2024-11-14_21h55.51.674,intentional_bonding,2024.2.4,118.51407009814152,2024-11-14 21h56.07.399409 +0530,
0.4,1000,unexp,88,8,8,space,0.029869334000977688,None,"
45",1,[3.8104588329879334],[3.810462124994956],8,8,88,1,914.5296492920024,,914.5205963339977,914.5296492920024,916.5203105419932,917.5166366670019,918.5233512919949,918.5578243749915,space,0.029869334000977688,None,918.5589087499975,0.40544529099133797,0.7065076250000857,919.2685099169903,919.2709782089951,919.2933799169987,919.2933799169987,919.2933799169987,923.1041560000012,"
45",1,[3.8104588329879334],[3.810462124994956],1,001,2024-11-14_21h55.51.674,intentional_bonding,2024.2.4,118.51407009814152,2024-11-14 21h56.07.399409 +0530,
0.4,1000,unexp,89,9,8,space,0.09195366599305999,None,"
300",1,[11.738018000003649],[11.738020917007816],8,9,89,4,923.1126588339976,,923.1042855839914,923.1126588339976,925.1041518749989,926.0994536669896,927.0976294169959,927.1997107499919,space,0.09195366599305999,None,927.2009907920001,0.4050385419977829,0.7044717499957187,927.909143041994,927.9114265839889,927.9324475839967,927.9324475839967,927.9324475839967,939.6707592919993,"
300",1,[11.738018000003649],[11.738020917007816],1,001,2024-11-14_21h55.51.674,intentional_bonding,2024.2.4,118.51407009814152,2024-11-14 21h56.07.399409 +0530,
0.7,1000,unexp,90,0,9,space,0.7057617920072516,None,"
700",1,[2.9781434169999557],[2.978146374996868],9,0,90,2,939.679204,,939.6708802499925,939.679204,941.6711033339961,942.6808339589916,943.6628399170004,944.3761947500025,space,0.7057617920072516,None,944.3775562090013,0.7036648329958552,1.0032913329923758,945.3845609169948,945.3869217499887,945.4091818339948,945.4091818339948,945.4091818339948,948.3876679589885,"
700",1,[2.9781434169999557],[2.978146374996868],1,001,2024-11-14_21h55.51.674,intentional_bonding,2024.2.4,118.51407009814152,2024-11-14 21h56.07.399409 +0530,
0.4,1000,unexp,91,1,9,space,0.399398082998232,None,"
800",1,[5.404263999997056],[5.40426695800852],9,1,91,4,948.395676916989,,948.3877989999892,948.395676916989,950.3874373339931,951.3804709169926,952.3803400420002,952.7816565839894,space,0.399398082998232,None,952.7822879589949,0.4062628749961732,0.706431957994937,953.4933889999957,953.4959916669904,953.5162721669913,953.5162721669913,953.5162721669913,958.9208895420015,"
800",1,[5.404263999997056],[5.40426695800852],1,001,2024-11-14_21h55.51.674,intentional_bonding,2024.2.4,118.51407009814152,2024-11-14 21h56.07.399409 +0530,
0.1,1000,unexp,92,2,9,space,0.688830584011157,None,"
50",1,[3.526260500002536],[3.526263708001352],9,2,92,3,958.9290891249984,,958.9210177919886,958.9290891249984,960.9209406669979,961.9140459170012,962.9139294589986,963.6065279169998,space,0.688830584011157,None,963.6070914169977,0.10763116599991918,0.41463270799431484,964.021742375,964.0230128339899,964.0434160419973,964.0434160419973,964.0434160419973,967.5700079590024,"
50",1,[3.526260500002536],[3.526263708001352],1,001,2024-11-14_21h55.51.674,intentional_bonding,2024.2.4,118.51407009814152,2024-11-14 21h56.07.399409 +0530,
0.4,400,exp,93,3,9,space,13.506945749992155,None,"
40",1,[2.5116073329991195],[2.511610333007411],9,3,93,7,967.5789649590006,,967.5701318339998,967.5789649590006,969.5708384589961,970.5647887919913,971.563506541992,985.072891459,space,13.506945749992155,None,985.0740671669919,0.4066178749926621,0.7066267920017708,985.7845789999992,985.7869931669993,985.8079787089955,985.8079787089955,985.8079787089955,988.3199287499883,"
40",1,[2.5116073329991195],[2.511610333007411],1,001,2024-11-14_21h55.51.674,intentional_bonding,2024.2.4,118.51407009814152,2024-11-14 21h56.07.399409 +0530,
0.7,400,exp,94,4,9,space,0.3830803750024643,None,"
200",1,[2.621222499990836],[2.621225333001348],9,4,94,8,988.3288083340012,,988.3200597919931,988.3288083340012,990.3209225419996,991.3167840419919,992.3125642090017,992.6977259169944,space,0.3830803750024643,None,992.698868291991,0.7060592919879127,1.00640833399666,993.7089488749916,993.7115443340008,993.7321383340022,993.7321383340022,993.7321383340022,996.3536459999887,"
200",1,[2.621222499990836],[2.621225333001348],1,001,2024-11-14_21h55.51.674,intentional_bonding,2024.2.4,118.51407009814152,2024-11-14 21h56.07.399409 +0530,
0.1,400,exp,95,5,9,space,0.0094939999980852,None,"
49",1,[2.505639458002406],[2.5056432080018567],9,5,95,6,996.3618934169936,,996.353772167,996.3618934169936,998.3529330839956,999.3637600840011,1000.346358750001,1000.3651594169933,space,0.0094939999980852,None,1000.3662395839929,0.10479216699604876,0.4067099999956554,1000.7749825419887,1000.7772140419984,1000.7977616669959,1000.7977616669959,1000.7977616669959,1003.3037465419911,"
49",1,[2.505639458002406],[2.5056432080018567],1,001,2024-11-14_21h55.51.674,intentional_bonding,2024.2.4,118.51407009814152,2024-11-14 21h56.07.399409 +0530,
0.1,400,exp,96,6,9,space,0.6333799580024788,None,"
23",1,[1.5891601250041276],[1.5891631250124192],9,6,96,9,1003.3124153749959,,1003.3038771249994,1003.3124153749959,1005.3047873339965,1006.2988727920019,1007.2960653749906,1007.9320097500022,space,0.6333799580024788,None,1007.93252841699,0.10401949999504723,0.4055942090053577,1008.3410193339951,1008.3427914170024,1008.3643463749904,1008.3643463749904,1008.3643463749904,1009.9538314169913,"
23",1,[1.5891601250041276],[1.5891631250124192],1,001,2024-11-14_21h55.51.674,intentional_bonding,2024.2.4,118.51407009814152,2024-11-14 21h56.07.399409 +0530,
0.1,1000,unexp,97,7,9,space,0.13628929200058337,None,"
49",1,[3.9934724170016125],[3.9934761250042357],9,7,97,0,1009.9620589169936,,1009.953953291988,1009.9620589169936,1011.9532555839978,1012.9518525839958,1013.963458083992,1014.1061225839949,space,0.13628929200058337,None,1014.1072340419923,0.10742154100444168,0.41373658301017713,1014.520591499997,1014.5221630000015,1014.5435005839972,1014.5435005839972,1014.5435005839972,1018.5373285419919,"
49",1,[3.9934724170016125],[3.9934761250042357],1,001,2024-11-14_21h55.51.674,intentional_bonding,2024.2.4,118.51407009814152,2024-11-14 21h56.07.399409 +0530,
0.7,400,exp,98,8,9,space,0.6416638749942649,None,"
65",1,[3.425866874997155],[3.42587012500735],9,8,98,5,1018.5452964589931,,1018.537466291993,1018.5452964589931,1020.5378402919887,1021.5332583749987,1022.530204041992,1023.1809488750005,space,0.6416638749942649,None,1023.18138941699,0.6992729580088053,0.9988818750134669,1024.1846768749965,1024.1869361249992,1024.2107142919995,1024.2107142919995,1024.2107142919995,1027.6369191249978,"
65",1,[3.425866874997155],[3.42587012500735],1,001,2024-11-14_21h55.51.674,intentional_bonding,2024.2.4,118.51407009814152,2024-11-14 21h56.07.399409 +0530,
0.4,1000,unexp,99,9,9,space,5.601858790992992,None,78,1,[5.829183415989974],[5.8291864579950925],9,9,99,1,1027.6451887500007,,1027.6370895,1027.6451887500007,1029.6379132089933,1030.6467651249986,1031.6291692499944,1037.2395751250006,space,5.601858790992992,None,1037.2400754589908,0.4062390420003794,0.706780250009615,1037.9513262089895,1037.953651208998,1037.974331624995,1037.974331624995,1037.974331624995,1043.8038457090006,78,1,[5.829183415989974],[5.8291864579950925],1,001,2024-11-14_21h55.51.674,intentional_bonding,2024.2.4,118.51407009814152,2024-11-14 21h56.07.399409 +0530,
0.4,1000,unexp,100,0,10,space,11.383801792006125,None,"
78",1,[2.754262832997483],[2.7542659579921747],10,0,100,4,1043.8118216250004,,1043.8039719590015,1043.8118216250004,1045.8035087919998,1046.7967584169965,1047.796846208992,1059.1832900839945,space,11.383801792006125,None,1059.184388624999,0.40345020800305065,0.7035899159964174,1059.8921491669898,1059.8948211249954,1059.915363209002,1059.915363209002,1059.915363209002,1062.6700163339992,"
78",1,[2.754262832997483],[2.7542659579921747],1,001,2024-11-14_21h55.51.674,intentional_bonding,2024.2.4,118.51407009814152,2024-11-14 21h56.07.399409 +0530,
0.4,400,exp,101,1,10,space,0.3863722499954747,None,"
90",1,[5.645271417000913],[5.645274208000046],10,1,101,7,1062.678328916998,,1062.670145416996,1062.678328916998,1064.669239166993,1065.6799356669944,1066.6622991249897,1067.0562892089947,space,0.3863722499954747,None,1067.0567829999927,0.40583962498931214,0.7069483749946812,1067.7672192499886,1067.7696728750016,1067.7905607089924,1067.7905607089924,1067.7905607089924,1073.4362179169984,"
90",1,[5.645271417000913],[5.645274208000046],1,001,2024-11-14_21h55.51.674,intentional_bonding,2024.2.4,118.51407009814152,2024-11-14 21h56.07.399409 +0530,
0.1,400,exp,102,2,10,space,0.7758506250102073,None,"
57",1,[2.0557829170138575],[2.0557859590044245],10,2,102,9,1073.4451641249907,,1073.4363389589998,1073.4451641249907,1075.4374005419959,1076.431092874991,1077.4371771669976,1078.2150040419947,space,0.7758506250102073,None,1078.2154393749952,0.10389250000298489,0.4049739580077585,1078.6239269999933,1078.626151999997,1078.6472731669928,1078.6472731669928,1078.6472731669928,1080.7033811250003,"
57",1,[2.0557829170138575],[2.0557859590044245],1,001,2024-11-14_21h55.51.674,intentional_bonding,2024.2.4,118.51407009814152,2024-11-14 21h56.07.399409 +0530,
0.1,1000,unexp,103,3,10,space,55.28861679098918,None,"
56",1,[2.5575052079948364],[2.5575085419986863],10,3,103,0,1080.711704166999,,1080.7035019589966,1080.711704166999,1082.7025942920009,1083.713130624994,1084.696584499994,1139.9971274169948,space,55.28861679098918,None,1139.9975322499959,0.09908929200901184,0.3988273750001099,1140.4012958339881,1140.4034814589977,1140.4283249169966,1140.4283249169966,1140.4283249169966,1142.9861794169992,"
56",1,[2.5575052079948364],[2.5575085419986863],1,001,2024-11-14_21h55.51.674,intentional_bonding,2024.2.4,118.51407009814152,2024-11-14 21h56.07.399409 +0530,
0.7,400,exp,104,4,10,space,0.34431604099518154,None,"
69",1,[1.6022366670076735],[1.602239958010614],10,4,104,8,1142.9944378749933,,1142.9863034169975,1142.9944378749933,1144.986553750001,1145.9808007919928,1146.9796430839924,1147.3308601249882,space,0.34431604099518154,None,1147.3320911249903,0.7065386670001317,1.0057160839933204,1148.3417110839946,1148.3442012089945,1148.3666749589902,1148.3666749589902,1148.3666749589902,1149.969240874998,"
69",1,[1.6022366670076735],[1.602239958010614],1,001,2024-11-14_21h55.51.674,intentional_bonding,2024.2.4,118.51407009814152,2024-11-14 21h56.07.399409 +0530,
0.4,1000,unexp,105,5,10,space,0.5219539169920608,None,"
500",1,[1.9715004169993335],[1.971504917004495],10,5,105,1,1149.9777147919958,,1149.969360749994,1149.9777147919958,1151.9688884589996,1152.9628258750017,1153.9672499169974,1154.4962157499976,space,0.5219539169920608,None,1154.4967194170022,0.405854583994369,0.7071317920053843,1155.2070664170024,1155.2090872499975,1155.2307672089955,1155.2307672089955,1155.2307672089955,1157.2026064999955,"
500",1,[1.9715004169993335],[1.971504917004495],1,001,2024-11-14_21h55.51.674,intentional_bonding,2024.2.4,118.51407009814152,2024-11-14 21h56.07.399409 +0530,
0.1,400,exp,106,6,10,space,0.08439904199622106,None,"
45 ",1,[1.950598000010359],[1.9506010830082232],10,6,106,6,1157.2110895840015,,1157.2027287919918,1157.2110895840015,1159.2030719169998,1160.1968131249887,1161.1958772919897,1161.2877227499994,space,0.08439904199622106,None,1161.288101041995,0.10841354200965725,0.4146135830087587,1161.7030545419984,1161.7046199999895,1161.7349030839978,1161.7349030839978,1161.7349030839978,1163.6858430419961,"
45 ",1,[1.950598000010359],[1.9506010830082232],1,001,2024-11-14_21h55.51.674,intentional_bonding,2024.2.4,118.51407009814152,2024-11-14 21h56.07.399409 +0530,
0.7,1000,unexp,107,7,10,space,0.240585709005245,None,"
23",1,[2.7790751249995083],[2.779078583000228],10,7,107,2,1163.694257458992,,1163.685967958998,1163.694257458992,1165.686338833999,1166.679250791989,1167.6790528339916,1167.9226031669969,space,0.240585709005245,None,1167.9233663339983,0.7056482920015696,1.0053354580013547,1168.9332540839969,1168.935690208993,1168.9563330419915,1168.9563330419915,1168.9563330419915,1171.7357504999964,"
23",1,[2.7790751249995083],[2.779078583000228],1,001,2024-11-14_21h55.51.674,intentional_bonding,2024.2.4,118.51407009814152,2024-11-14 21h56.07.399409 +0530,
0.1,1000,unexp,108,8,10,space,6.907827999995789,None,"
77",1,[1.3029592079983559],[1.302962417001254],10,8,108,3,1171.7441789589939,,1171.7358755000023,1171.7441789589939,1173.7361203749897,1174.7299057499913,1175.7277127919951,1182.6386489589931,space,6.907827999995789,None,1182.6396205839992,0.10727412499545608,0.40661499999987427,1183.0502828749886,1183.052240459001,1183.0826453339978,1183.0826453339978,1183.0826453339978,1184.3859530420013,"
77",1,[1.3029592079983559],[1.302962417001254],1,001,2024-11-14_21h55.51.674,intentional_bonding,2024.2.4,118.51407009814152,2024-11-14 21h56.07.399409 +0530,
0.7,400,exp,109,9,10,space,1.287288792009349,None,"
900",1,[2.4468912500014994],[2.446894125008839],10,9,109,5,1184.3939889999892,,1184.3860794999928,1184.3939889999892,1186.3848150419944,1187.3792276669992,1188.3789672499988,1189.6711817920004,space,1.287288792009349,None,1189.6720744170016,0.7066862920037238,1.0066984580043936,1190.682702334001,1190.684757583993,1190.7051787090022,1190.7051787090022,1190.7051787090022,1193.152395416997,"
900",1,[2.4468912500014994],[2.446894125008839],1,001,2024-11-14_21h55.51.674,intentional_bonding,2024.2.4,118.51407009814152,2024-11-14 21h56.07.399409 +0530,
0.4,1000,unexp,110,0,11,space,3.303998416988179,None,"
600",1,[2.7650235839973902],[2.7650265419943025],11,0,110,4,1193.1606201669929,,1193.1525187499938,1193.1606201669929,1195.151686333993,1196.1456732499937,1197.145708791999,1200.4644150419917,space,3.303998416988179,None,1200.4656042499992,0.40471354199689813,0.7047587920096703,1201.1743399589905,1201.17703833399,1201.2033429589937,1201.2033429589937,1201.2033429589937,1203.9686991670023,"
600",1,[2.7650235839973902],[2.7650265419943025],1,001,2024-11-14_21h55.51.674,intentional_bonding,2024.2.4,118.51407009814152,2024-11-14 21h56.07.399409 +0530,
0.7,1000,unexp,111,1,11,space,0.7341027079964988,None,"
200",1,[4.069824042002438],[4.069836291993852],11,1,111,2,1203.9772378339985,,1203.9688532919972,1203.9772378339985,1205.968309208998,1206.9631177499978,1207.9610138749995,1208.697773833992,space,0.7341027079964988,None,1208.6991340419918,0.7056859580043238,1.0051152079977328,1209.7090404999908,1209.711294666995,1209.732059249989,1209.732059249989,1209.732059249989,1213.8022471669974,"
200",1,[4.069824042002438],[4.069836291993852],1,001,2024-11-14_21h55.51.674,intentional_bonding,2024.2.4,118.51407009814152,2024-11-14 21h56.07.399409 +0530,
0.4,400,exp,112,2,11,space,8.621438083006069,None,"
1000",1,[3.4776460840075742],[3.477650042012101],11,2,112,7,1213.8107836249983,,1213.8023994589894,1213.8107836249983,1215.8025501669908,1216.7966806249897,1217.7952645839978,1226.4236029999884,space,8.621438083006069,None,1226.42503462499,0.4039231659990037,0.7043158750020666,1227.1331154169893,1227.135462374994,1227.1569912089908,1227.1569912089908,1227.1569912089908,1230.6349472089933,"
1000",1,[3.4776460840075742],[3.477650042012101],1,001,2024-11-14_21h55.51.674,intentional_bonding,2024.2.4,118.51407009814152,2024-11-14 21h56.07.399409 +0530,
0.7,400,exp,113,3,11,space,4.093617834005272,None,"
600",1,[1.3637919159955345],[1.3637952499993844],11,3,113,8,1230.643808875,,1230.6350729999976,1230.643808875,1232.6357478339924,1233.6300914169988,1234.6285740000021,1238.7306089589983,space,4.093617834005272,None,1238.7314808340016,0.7046909999917261,1.0056695829989621,1239.740345541999,1239.7424197090004,1239.7713559169933,1239.7713559169933,1239.7713559169933,1241.1354738340015,"
600",1,[1.3637919159955345],[1.3637952499993844],1,001,2024-11-14_21h55.51.674,intentional_bonding,2024.2.4,118.51407009814152,2024-11-14 21h56.07.399409 +0530,
0.1,400,exp,114,4,11,space,0.3797207919997163,None,"
34",1,[3.26192833299865],[3.2619315829942934],11,4,114,9,1241.1437053339905,,1241.1356024999986,1241.1437053339905,1243.1346296249976,1244.1452697919885,1245.1279960419924,1245.5124519169913,space,0.3797207919997163,None,1245.512970166994,0.09940779200405814,0.3996215000079246,1245.9171971670003,1245.9193476669898,1245.939761208996,1245.939761208996,1245.939761208996,1249.2020987919968,"
34",1,[3.26192833299865],[3.2619315829942934],1,001,2024-11-14_21h55.51.674,intentional_bonding,2024.2.4,118.51407009814152,2024-11-14 21h56.07.399409 +0530,
0.1,1000,unexp,115,5,11,space,1.425601374998223,None,"
78",1,[1.511697207999532],[1.5117002079932718],11,5,115,3,1249.2104277089966,,1249.20222258399,1249.2104277089966,1251.2031119169988,1252.196127749994,1253.1951276670006,1254.6277154589916,space,1.425601374998223,None,1254.6281420419982,0.10076154200942256,0.40143854200141504,1255.033252084002,1255.0352026670007,1255.0563973749959,1255.0563973749959,1255.0563973749959,1256.5684160419914,"
78",1,[1.511697207999532],[1.5117002079932718],1,001,2024-11-14_21h55.51.674,intentional_bonding,2024.2.4,118.51407009814152,2024-11-14 21h56.07.399409 +0530,
0.7,400,exp,116,6,11,space,0.14126291700813454,None,"
34",1,[1.538814707993879],[1.5388187499920605],11,6,116,5,1256.5771457090013,,1256.568551666991,1256.5771457090013,1258.5793037919939,1259.5646100000013,1260.5620023749943,1260.7137816249888,space,0.14126291700813454,None,1260.714896999998,0.7047499170002993,1.0051660839963006,1261.723925917002,1261.726209291999,1261.7462566670001,1261.7462566670001,1261.7462566670001,1263.2854253749974,"
34",1,[1.538814707993879],[1.5388187499920605],1,001,2024-11-14_21h55.51.674,intentional_bonding,2024.2.4,118.51407009814152,2024-11-14 21h56.07.399409 +0530,
0.4,1000,unexp,117,7,11,space,0.6601932919875253,None,"
74",1,[3.336560916999588],[3.3365636670059757],11,7,117,1,1263.2939188750024,,1263.2855530840025,1263.2939188750024,1265.2847085419926,1266.2809653339937,1267.2952482089895,1267.963996541992,space,0.6601932919875253,None,1267.9648232089967,0.4045296660042368,0.703972374991281,1268.6730687499949,1268.6756757089897,1268.6980290419888,1268.6980290419888,1268.6980290419888,1272.0348985839955,"
74",1,[3.336560916999588],[3.3365636670059757],1,001,2024-11-14_21h55.51.674,intentional_bonding,2024.2.4,118.51407009814152,2024-11-14 21h56.07.399409 +0530,
0.1,1000,unexp,118,8,11,space,0.22546045899798628,None,"
65",1,[7.364295916995616],[7.364299833003315],11,8,118,0,1272.043284667001,,1272.0350202499976,1272.043284667001,1274.0454796249978,1275.0304459170002,1276.028660541997,1276.2635299999965,space,0.22546045899798628,None,1276.264027583995,0.10492295799485873,0.4150480829994194,1276.6792772089975,1276.6808557499899,1276.7048084169946,1276.7048084169946,1276.7048084169946,1284.0696179590013,"
65",1,[7.364295916995616],[7.364299833003315],1,001,2024-11-14_21h55.51.674,intentional_bonding,2024.2.4,118.51407009814152,2024-11-14 21h56.07.399409 +0530,
0.1,400,exp,119,9,11,space,0.545943040997372,None,"
24",1,[14.92251474999648],[14.922517667000648],11,9,119,6,1284.0769932919939,,1284.0697455420013,1284.0769932919939,1286.067820583994,1287.0738648339902,1288.0611906669947,1288.612915916994,space,0.545943040997372,None,1288.613808583992,0.1053328749985667,0.40491245899465866,1289.0226834589994,1289.0247517919925,1289.0453560419992,1289.0453560419992,1289.0453560419992,1303.9682257919922,"
24",1,[14.92251474999648],[14.922517667000648],1,001,2024-11-14_21h55.51.674,intentional_bonding,2024.2.4,118.51407009814152,2024-11-14 21h56.07.399409 +0530,
0.1,1000,unexp,120,0,12,space,0.094430833007209,None,"
79",1,[1.0375320419989293],[1.0375351669936208],12,0,120,3,1303.9764877919952,,1303.9683565000014,1303.9764877919952,1305.968046916998,1306.9621927499975,1307.9617597499891,1308.0629483340017,space,0.094430833007209,None,1308.0633892089973,0.10548687500704546,0.4061219580034958,1308.4736474169913,1308.4759651669883,1308.4964605419955,1308.4964605419955,1308.4964605419955,1309.534315166995,"
79",1,[1.0375320419989293],[1.0375351669936208],1,001,2024-11-14_21h55.51.674,intentional_bonding,2024.2.4,118.51407009814152,2024-11-14 21h56.07.399409 +0530,
0.4,1000,unexp,121,1,12,space,0.3065390420088079,None,"
543",1,[0.7497185829997761],[0.749723000000813],12,1,121,1,1309.5430049999995,,1309.5344359169976,1309.5430049999995,1311.5347250839986,1312.5301876250014,1313.5269750000007,1313.8461194589909,space,0.3065390420088079,None,1313.847117708996,0.40799616600270383,0.7142567910050275,1314.5613437499997,1314.563626416988,1314.5847623750014,1314.5847623750014,1314.5847623750014,1315.3348074169917,"
543",1,[0.7497185829997761],[0.749723000000813],1,001,2024-11-14_21h55.51.674,intentional_bonding,2024.2.4,118.51407009814152,2024-11-14 21h56.07.399409 +0530,
0.4,400,exp,122,2,12,space,0.44520270799694117,None,"
900",1,[1.6713565840036608],[1.6713596250046976],12,2,122,7,1315.3430684170016,,1315.334928708995,1315.3430684170016,1317.335674624992,1318.330309166995,1319.3272299169912,1319.7793859999947,space,0.44520270799694117,None,1319.7804834589915,0.4055975000082981,0.7056900830066297,1320.4901172919926,1320.4928646670014,1320.512914084,1320.512914084,1320.512914084,1322.1846027089923,"
900",1,[1.6713565840036608],[1.6713596250046976],1,001,2024-11-14_21h55.51.674,intentional_bonding,2024.2.4,118.51407009814152,2024-11-14 21h56.07.399409 +0530,
0.4,1000,unexp,123,3,12,space,0.10278241698688362,None,"
400",1,[3.1208237090031616],[3.120827292004833],12,3,123,4,1322.1933525419881,,1322.1847560000024,1322.1933525419881,1324.1861551670008,1325.1946725419984,1326.1766980839893,1326.2852698339993,space,0.10278241698688362,None,1326.2860804169904,0.3997644159971969,0.699735916001373,1326.989955083991,1326.9921302500006,1327.0135264169949,1327.0135264169949,1327.0135264169949,1330.134660249998,"
400",1,[3.1208237090031616],[3.120827292004833],1,001,2024-11-14_21h55.51.674,intentional_bonding,2024.2.4,118.51407009814152,2024-11-14 21h56.07.399409 +0530,
0.7,400,exp,124,4,12,space,0.03277449999586679,None,"
100",1,[0.8875677499891026],[0.8875707919942215],12,4,124,5,1330.1430900419946,,1330.1348102089978,1330.1430900419946,1332.1352890839917,1333.12902149999,1334.1278096669994,1334.1633508749946,space,0.03277449999586679,None,1334.1638430839957,0.7047003750049043,1.0043583750084508,1335.1729243750015,1335.1754849999998,1335.1964332089992,1335.1964332089992,1335.1964332089992,1336.0842913749948,"
100",1,[0.8875677499891026],[0.8875707919942215],1,001,2024-11-14_21h55.51.674,intentional_bonding,2024.2.4,118.51407009814152,2024-11-14 21h56.07.399409 +0530,
0.7,400,exp,125,5,12,space,0.4937039999931585,None,"
200",1,[2.821315459004836],[2.821318500005873],12,5,125,8,1336.0933383749943,,1336.0844157919928,1336.0933383749943,1338.085195749998,1339.094643666991,1340.094902249999,1340.5964952089998,space,0.4937039999931585,None,1340.5975852919946,0.7045420829963405,1.0044434999872465,1341.605796208998,1341.607939249996,1341.6295716250024,1341.6295716250024,1341.6295716250024,1344.451184999998,"
200",1,[2.821315459004836],[2.821318500005873],1,001,2024-11-14_21h55.51.674,intentional_bonding,2024.2.4,118.51407009814152,2024-11-14 21h56.07.399409 +0530,
0.1,400,exp,126,6,12,space,0.6778194589860504,None,"
400",1,[6.079689207996125],[6.079692250001244],12,6,126,9,1344.4595617919986,,1344.4513069589884,1344.4595617919986,1346.4514905419928,1347.4452564999956,1348.4431284999882,1349.1272282499995,space,0.6778194589860504,None,1349.127611459,0.10063891699246597,0.4007990419922862,1349.5342541249993,1349.5367607499938,1349.5543839999882,1349.5543839999882,1349.5543839999882,1355.6344044169964,"
400",1,[6.079689207996125],[6.079692250001244],1,001,2024-11-14_21h55.51.674,intentional_bonding,2024.2.4,118.51407009814152,2024-11-14 21h56.07.399409 +0530,
0.7,1000,unexp,127,7,12,space,1.8713395410013618,None,"
25",1,[2.984942000010051],[2.984945542004425],12,7,127,2,1355.6427910839993,,1355.6345299169916,1355.6427910839993,1357.6349502090015,1358.6290754999936,1359.628097333989,1361.5128983749892,space,1.8713395410013618,None,1361.5138516250008,0.7058871659974102,1.0064336250070482,1362.5238467089948,1362.5265674169932,1362.548525374994,1362.548525374994,1362.548525374994,1365.5337834589882,"
25",1,[2.984942000010051],[2.984945542004425],1,001,2024-11-14_21h55.51.674,intentional_bonding,2024.2.4,118.51407009814152,2024-11-14 21h56.07.399409 +0530,
0.1,1000,unexp,128,8,12,space,0.05944841699965764,None,"
600",1,[7.295459582994226],[7.295462541995221],12,8,128,0,1365.5427342920011,,1365.5339126670005,1365.5427342920011,1367.534977874995,1368.5444206669927,1369.526540958992,1369.5881363340013,space,0.05944841699965764,None,1369.589112208996,0.10590466699795797,0.40640129199891817,1369.9992987919977,1370.0016066249955,1370.0219304999919,1370.0219304999919,1370.0219304999919,1377.3177210419963,"
600",1,[7.295459582994226],[7.295462541995221],1,001,2024-11-14_21h55.51.674,intentional_bonding,2024.2.4,118.51407009814152,2024-11-14 21h56.07.399409 +0530,
0.1,400,exp,129,9,12,space,0.09939412500534672,None,"
24",1,[2.8280704579956364],[2.828073291995679],12,9,129,6,1377.326099375001,,1377.3178521669906,1377.326099375001,1379.3174690000014,1380.310454541992,1381.3097611249977,1381.4123735839967,space,0.09939412500534672,None,1381.413476834001,0.10586837500159163,0.40752804100338835,1381.823358499998,1381.8250959589932,1381.8556349169958,1381.8556349169958,1381.8556349169958,1384.6840267499938,"
24",1,[2.8280704579956364],[2.828073291995679],1,001,2024-11-14_21h55.51.674,intentional_bonding,2024.2.4,118.51407009814152,2024-11-14 21h56.07.399409 +0530,
0.7,1000,unexp,130,0,13,space,2.1709910000063246,None,"
45",1,[6.271741708987975],[6.271744999990915],13,0,130,2,1384.6928836250008,,1384.6841526669887,1384.6928836250008,1386.6844984999916,1387.6776953340013,1388.686525333993,1390.861955417,space,2.1709910000063246,None,1390.862383833999,0.7064600000012433,1.0058140829933109,1391.8727926249994,1391.875401583995,1391.8956044590013,1391.8956044590013,1391.8956044590013,1398.1676622090017,"
45",1,[6.271741708987975],[6.271744999990915],1,001,2024-11-14_21h55.51.674,intentional_bonding,2024.2.4,118.51407009814152,2024-11-14 21h56.07.399409 +0530,
0.4,1000,unexp,131,1,13,space,4.102840874998947,None,"
900",1,[4.7318081249977695],[4.731811457997537],13,1,131,1,1398.1759045419894,,1398.167789291998,1398.1759045419894,1400.1672962919984,1401.1615104999946,1402.1636366250023,1406.2678939589969,space,4.102840874998947,None,1406.2682594999933,0.4000677080039168,0.7096961670031305,1406.9785267919942,1406.9808512500022,1407.0016028339887,1407.0016028339887,1407.0016028339887,1411.7337362499966,"
900",1,[4.7318081249977695],[4.731811457997537],1,001,2024-11-14_21h55.51.674,intentional_bonding,2024.2.4,118.51407009814152,2024-11-14 21h56.07.399409 +0530,
0.7,400,exp,132,2,13,space,1.4537507909990381,None,"
1000",1,[2.7719145839946577],[2.77191741700517],13,2,132,5,1411.742322334001,,1411.733864875001,1411.742322334001,1413.7338119589986,1414.7263308339898,1415.7272986249882,1417.1858731249959,space,1.4537507909990381,None,1417.1863337499963,0.7078089999995427,1.007104291988071,1418.1981028339942,1418.2005508750008,1418.2283290420019,1418.2283290420019,1418.2283290420019,1421.0006246669946,"
1000",1,[2.7719145839946577],[2.77191741700517],1,001,2024-11-14_21h55.51.674,intentional_bonding,2024.2.4,118.51407009814152,2024-11-14 21h56.07.399409 +0530,
0.4,400,exp,133,3,13,space,2.2075984590046573,None,"
500",1,[2.2760965829947963],[2.276099583003088],13,3,133,7,1421.0090600419935,,1421.0007514999888,1421.0090600419935,1423.0004889999982,1423.993985833993,1425.0023661669984,1427.2117503339978,space,2.2075984590046573,None,1427.2121969169966,0.3991065830050502,0.7059851250087377,1427.9182906249916,1427.9197792499908,1427.940734459,1427.940734459,1427.940734459,1430.21714337499,"
500",1,[2.2760965829947963],[2.276099583003088],1,001,2024-11-14_21h55.51.674,intentional_bonding,2024.2.4,118.51407009814152,2024-11-14 21h56.07.399409 +0530,
0.1,1000,unexp,134,4,13,space,0.6456704580050427,None,"
86",1,[3.1451746249949792],[3.145177499987767],13,4,134,3,1430.2257022089907,,1430.2172717499925,1430.2257022089907,1432.218019958993,1433.2113700839982,1434.21066383399,1434.8616222919954,space,0.6456704580050427,None,1434.8624138339947,0.09915533300954849,0.40591629200207535,1435.2690435419936,1435.2714077499986,1435.288724041995,1435.288724041995,1435.288724041995,1438.4342268749897,"
86",1,[3.1451746249949792],[3.145177499987767],1,001,2024-11-14_21h55.51.674,intentional_bonding,2024.2.4,118.51407009814152,2024-11-14 21h56.07.399409 +0530,
0.1,400,exp,135,5,13,space,0.9363415420084493,None,"
50",1,[2.2812961659947177],[2.281299082998885],13,5,135,9,1438.4426520419947,,1438.4343622089946,1438.4426520419947,1440.4342438749882,1441.4301316249912,1442.4259338339907,1443.3719362919946,space,0.9363415420084493,None,1443.3734030420019,0.1052835840091575,0.40706812500138767,1443.7822936669982,1443.7838957919885,1443.801945083993,1443.801945083993,1443.801945083993,1446.0835665839986,"
50",1,[2.2812961659947177],[2.281299082998885],1,001,2024-11-14_21h55.51.674,intentional_bonding,2024.2.4,118.51407009814152,2024-11-14 21h56.07.399409 +0530,
0.7,400,exp,136,6,13,space,0.42103195800154936,None,"
300",1,[1.7885272499988787],[1.7885306249954738],13,6,136,8,1446.0924749589904,,1446.0837382089958,1446.0924749589904,1448.0837683339923,1449.077453209,1450.0853635419917,1450.5111040839984,space,0.42103195800154936,None,1450.5122761669918,0.7054452909942484,1.0073043329903157,1451.5213456249912,1451.5232419169915,1451.5448257499957,1451.5448257499957,1451.5448257499957,1453.3336527499923,"
300",1,[1.7885272499988787],[1.7885306249954738],1,001,2024-11-14_21h55.51.674,intentional_bonding,2024.2.4,118.51407009814152,2024-11-14 21h56.07.399409 +0530,
0.1,1000,unexp,137,7,13,space,1.097376958001405,None,"
69",1,[1.593502333998913],[1.593505124998046],13,7,137,0,1453.3424021249957,,1453.3337776669941,1453.3424021249957,1455.3334356669948,1456.3293158339948,1457.3353192499926,1458.437118124988,space,1.097376958001405,None,1458.4382278749981,0.10658137500286102,0.4131302500027232,1458.8509834169963,1458.852528916992,1458.8728043339943,1458.8728043339943,1458.8728043339943,1460.466602083994,"
69",1,[1.593502333998913],[1.593505124998046],1,001,2024-11-14_21h55.51.674,intentional_bonding,2024.2.4,118.51407009814152,2024-11-14 21h56.07.399409 +0530,
0.4,1000,unexp,138,8,13,space,0.6203527920006309,None,"
88",1,[0.9712582909996854],[0.9712616659962805],13,8,138,4,1460.475688416991,,1460.4667272499937,1460.475688416991,1462.4661345419881,1463.4629551249964,1464.4682244169962,1465.0958077919931,space,0.6203527920006309,None,1465.0962934999989,0.40478429100767244,0.7058530409995001,1465.8058506249945,1465.808645083991,1465.8287628749968,1465.8287628749968,1465.8287628749968,1466.8003757919942,"
88",1,[0.9712582909996854],[0.9712616659962805],1,001,2024-11-14_21h55.51.674,intentional_bonding,2024.2.4,118.51407009814152,2024-11-14 21h56.07.399409 +0530,
0.1,400,exp,139,9,13,space,1.0279181669902755,None,"
300",1,[1.4965840420045424],[1.496587959001772],13,9,139,6,1466.8087691249966,,1466.8005114999978,1466.8087691249966,1468.8006157499913,1469.810082625001,1470.7924357500015,1471.8367811249918,space,1.0279181669902755,None,1471.837711166998,0.10562162499991246,0.40628858300624415,1472.2473119589995,1472.2496022089908,1472.2698013339977,1472.2698013339977,1472.2698013339977,1473.7667478340009,"
300",1,[1.4965840420045424],[1.496587959001772],1,001,2024-11-14_21h55.51.674,intentional_bonding,2024.2.4,118.51407009814152,2024-11-14 21h56.07.399409 +0530,
0.4,400,exp,140,0,14,space,0.50809470799868,None,"
300",1,[2.486817124998197],[2.486820791993523],14,0,140,7,1473.7753906669968,,1473.7668710839935,1473.7753906669968,1475.767006708993,1476.7604429170024,1477.7601857499976,1478.280054834002,space,0.50809470799868,None,1478.2813331669895,0.40282020799349993,0.7038486249948619,1478.9883241669886,1478.9908537919982,1479.01323674999,1479.01323674999,1479.01323674999,1481.500382667,"
300",1,[2.486817124998197],[2.486820791993523],1,001,2024-11-14_21h55.51.674,intentional_bonding,2024.2.4,118.51407009814152,2024-11-14 21h56.07.399409 +0530,
0.1,400,exp,141,1,14,space,0.6602224160014885,None,80,1,[19.64358262499445],[19.643586499994854],14,1,141,6,1481.508581874994,,1481.500515541993,1481.508581874994,1483.5006771670014,1484.5101661249937,1485.4935734169994,1486.1609217090008,space,0.6602224160014885,None,1486.162028791994,0.09919145800813567,0.40583266600151546,1486.5673593339889,1486.5685843339888,1486.5890454589971,1486.5890454589971,1486.5890454589971,1506.2329443339986,80,1,[19.64358262499445],[19.643586499994854],1,001,2024-11-14_21h55.51.674,intentional_bonding,2024.2.4,118.51407009814152,2024-11-14 21h56.07.399409 +0530,
0.4,1000,unexp,142,2,14,space,0.4336428749957122,None,"
500",1,[3.743310541001847],[3.7433139579952694],14,2,142,1,1506.2417159589968,,1506.2330883749964,1506.2417159589968,1508.2330493749905,1509.2272677500005,1510.2342405839881,1510.6786853749945,space,0.4336428749957122,None,1510.6796458749886,0.4049482089903904,0.7147211249975953,1511.3940613339946,1511.3953617919906,1511.4065837919916,1511.4065837919916,1511.4065837919916,1515.1502489589911,"
500",1,[3.743310541001847],[3.7433139579952694],1,001,2024-11-14_21h55.51.674,intentional_bonding,2024.2.4,118.51407009814152,2024-11-14 21h56.07.399409 +0530,
0.7,400,exp,143,3,14,space,0.09552283299854025,None,"
79",1,[2.937035333001404],[2.9370389160030754],14,3,143,8,1515.1583739170019,,1515.1503681670001,1515.1583739170019,1517.1502626250003,1518.1453745839972,1519.1423538340023,1519.243486041989,space,0.09552283299854025,None,1519.24394437499,0.7059086250083055,1.006818875001045,1520.2545117919944,1520.2570432089997,1520.278884083993,1520.278884083993,1520.278884083993,1523.2162427919975,"
79",1,[2.937035333001404],[2.9370389160030754],1,001,2024-11-14_21h55.51.674,intentional_bonding,2024.2.4,118.51407009814152,2024-11-14 21h56.07.399409 +0530,
0.1,1000,unexp,144,4,14,space,0.35525820800103247,None,"
90",1,[4.764468875000603],[4.764471832997515],14,4,144,0,1523.224948499992,,1523.2163639589999,1523.224948499992,1525.2159339169884,1526.212520874993,1527.2087225839932,1527.567352291997,space,0.35525820800103247,None,1527.5677567499952,0.1093632499978412,0.4101313340070192,1527.9819231669971,1527.9835012089898,1528.0020864169928,1528.0020864169928,1528.0020864169928,1532.7668596250005,"
90",1,[4.764468875000603],[4.764471832997515],1,001,2024-11-14_21h55.51.674,intentional_bonding,2024.2.4,118.51407009814152,2024-11-14 21h56.07.399409 +0530,
0.1,400,exp,145,5,14,space,0.12998420900839847,None,"
10",1,[3.6342091250116937],[3.6342121250054333],14,5,145,9,1532.7750404589897,,1532.7669864589989,1532.7750404589897,1534.7770117920008,1535.7763297919882,1536.758534291992,1536.894094874995,space,0.12998420900839847,None,1536.8945419999945,0.10577558299701195,0.40554620799957775,1537.304797083998,1537.3070400419965,1537.3317007919977,1537.3317007919977,1537.3317007919977,1540.9662308339903,"
10",1,[3.6342091250116937],[3.6342121250054333],1,001,2024-11-14_21h55.51.674,intentional_bonding,2024.2.4,118.51407009814152,2024-11-14 21h56.07.399409 +0530,
0.4,1000,unexp,146,6,14,space,0.20084562500414904,None,"
45",1,[2.5704424579889746],[2.5704463749862043],14,6,146,4,1540.975076458999,,1540.9663560420013,1540.975076458999,1542.9659622920008,1543.9765826249932,1544.9593268339959,1545.162225084001,space,0.20084562500414904,None,1545.1635812089953,0.40446654199331533,0.7043368750018999,1545.8716564589995,1545.8741547499958,1545.8958605419903,1545.8958605419903,1545.8958605419903,1548.466679499994,"
45",1,[2.5704424579889746],[2.5704463749862043],1,001,2024-11-14_21h55.51.674,intentional_bonding,2024.2.4,118.51407009814152,2024-11-14 21h56.07.399409 +0530,
0.1,1000,unexp,147,7,14,space,1.0156308750010794,None,"
30",1,[3.2727022920007585],[3.27270587500243],14,7,147,3,1548.4747993749916,,1548.4668112919899,1548.4747993749916,1550.4669045839983,1551.460360625002,1552.4597421669896,1553.4784307090013,space,1.0156308750010794,None,1553.479219249988,0.10367870899790432,0.4047439169953577,1553.8869531249948,1553.888796416999,1553.9104444169934,1553.9104444169934,1553.9104444169934,1557.183461624998,"
30",1,[3.2727022920007585],[3.27270587500243],1,001,2024-11-14_21h55.51.674,intentional_bonding,2024.2.4,118.51407009814152,2024-11-14 21h56.07.399409 +0530,
0.7,400,exp,148,8,14,space,0.22099116699246224,None,"
66",1,[2.5282059159944765],[2.5282091249973746],14,8,148,5,1557.191244333997,,1557.183585916995,1557.191244333997,1559.1829204999958,1560.1794402499945,1561.176255333994,1561.4007490840013,space,0.22099116699246224,None,1561.4018526250002,0.7085300000035204,1.0084116250072839,1562.4140944169922,1562.4165180839918,1562.4372099999891,1562.4372099999891,1562.4372099999891,1564.965746834001,"
66",1,[2.5282059159944765],[2.5282091249973746],1,001,2024-11-14_21h55.51.674,intentional_bonding,2024.2.4,118.51407009814152,2024-11-14 21h56.07.399409 +0530,
0.7,1000,unexp,149,9,14,space,0.19883604199276306,None,"
700",1,[6.854978957999265],[6.854981833006605],14,9,149,2,1564.9748309999995,,1564.9658752919931,1564.9748309999995,1566.966629417002,1567.961822792,1568.9598601670004,1569.1612412499962,space,0.19883604199276306,None,1569.161855667,0.7056669579906156,1.0062603749975096,1570.1718253339932,1570.1737119589961,1570.1942015419918,1570.1942015419918,1570.1942015419918,1577.049475916996,"
700",1,[6.854978957999265],[6.854981833006605],1,001,2024-11-14_21h55.51.674,intentional_bonding,2024.2.4,118.51407009814152,2024-11-14 21h56.07.399409 +0530,
0.7,400,exp,150,0,15,space,0.3035879590024706,None,"
13",1,[2.328863000002457],[2.3288660000107484],15,0,150,8,1577.0579210419965,,1577.049601833991,1577.0579210419965,1579.0492932920024,1580.0452201669978,1581.0428320419887,1581.3516301670024,space,0.3035879590024706,None,1581.3525503339915,0.7070110839995323,1.0067765419953503,1582.3637902920018,1582.3661782919953,1582.3869592089904,1582.3869592089904,1582.3869592089904,1584.716141041994,"
13",1,[2.328863000002457],[2.3288660000107484],1,001,2024-11-14_21h55.51.674,intentional_bonding,2024.2.4,118.51407009814152,2024-11-14 21h56.07.399409 +0530,
0.1,1000,unexp,151,1,15,space,0.4557889160059858,None,"
89",1,[7.8964144159981515],[7.896417708005174],15,1,151,0,1584.7247577499948,,1584.7162590419903,1584.7247577499948,1586.7168900419929,1587.7102446669887,1588.712453125001,1589.1753131669975,space,0.4557889160059858,None,1589.1756850839884,0.09980145799636375,0.3997673329868121,1589.5801556669903,1589.5822037920007,1589.6025569170015,1589.6025569170015,1589.6025569170015,1597.4993722919899,"
89",1,[7.8964144159981515],[7.896417708005174],1,001,2024-11-14_21h55.51.674,intentional_bonding,2024.2.4,118.51407009814152,2024-11-14 21h56.07.399409 +0530,
0.1,400,exp,152,2,15,space,0.5818653750029625,None,"
600",1,[4.466210416998365],[4.466213416992105],15,2,152,9,1597.5081515420025,,1597.4994994169974,1597.5081515420025,1599.4991939589963,1600.4937818339968,1601.4923120839958,1602.0939700419985,space,0.5818653750029625,None,1602.094440959001,0.10584124999877531,0.40579399999114685,1602.5047326249914,1602.507190624994,1602.5327651249972,1602.5327651249972,1602.5327651249972,1606.9992769169912,"
600",1,[4.466210416998365],[4.466213416992105],1,001,2024-11-14_21h55.51.674,intentional_bonding,2024.2.4,118.51407009814152,2024-11-14 21h56.07.399409 +0530,
0.4,1000,unexp,153,3,15,space,4.075658292000298,None,"
43",1,[4.003534165996825],[4.003538290999131],15,3,153,1,1607.0079417499946,,1606.9994327919994,1607.0079417499946,1608.9987642089982,1610.0093378339952,1611.0006666249974,1615.0771536669927,space,4.075658292000298,None,1615.0775991669943,0.40563308299169876,0.7055058330006432,1615.7878927089914,1615.7907507499913,1615.8119764589937,1615.8119764589937,1615.8119764589937,1619.8158637500019,"
43",1,[4.003534165996825],[4.003538290999131],1,001,2024-11-14_21h55.51.674,intentional_bonding,2024.2.4,118.51407009814152,2024-11-14 21h56.07.399409 +0530,
0.4,400,exp,154,4,15,space,1.3827328339975793,None,"
98",1,[2.1485052920033922],[2.148508334008511],15,4,154,7,1619.824263292001,,1619.8159841669985,1619.824263292001,1621.8159181669907,1622.8103879589908,1623.808174708989,1625.1949915000005,space,1.3827328339975793,None,1625.1963537089905,0.40387045800162014,0.7048609580087941,1625.9038272499893,1625.9062811249896,1625.933648499995,1625.933648499995,1625.933648499995,1628.0824899589934,"
98",1,[2.1485052920033922],[2.148508334008511],1,001,2024-11-14_21h55.51.674,intentional_bonding,2024.2.4,118.51407009814152,2024-11-14 21h56.07.399409 +0530,
0.4,1000,unexp,155,5,15,space,0.27189070799795445,None,"
42",1,[6.8406421250110725],[6.840645166012109],15,5,155,4,1628.0907999999908,,1628.0826306249946,1628.0907999999908,1630.0821685419942,1631.0923615419888,1632.0746090419998,1632.3497474589967,space,0.27189070799795445,None,1632.3507897499949,0.4096295409981394,0.7170544999971753,1633.0675645419979,1633.069146791997,1633.0914667499892,1633.0914667499892,1633.0914667499892,1639.9324562089896,"
42",1,[6.8406421250110725],[6.840645166012109],1,001,2024-11-14_21h55.51.674,intentional_bonding,2024.2.4,118.51407009814152,2024-11-14 21h56.07.399409 +0530,
0.1,400,exp,156,6,15,space,0.4179806250031106,None,"
70",1,[2.704551000002539],[2.7045541669940576],15,6,156,6,1639.940757749995,,1639.9325784589892,1639.940757749995,1641.932161833989,1642.9281811669935,1643.9257549999893,1644.3503432500002,space,0.4179806250031106,None,1644.35075516699,0.10066816699691117,0.39990491699427366,1644.755340083997,1644.7573984999908,1644.7777349589887,1644.7777349589887,1644.7777349589887,1647.482616084002,"
70",1,[2.704551000002539],[2.7045541669940576],1,001,2024-11-14_21h55.51.674,intentional_bonding,2024.2.4,118.51407009814152,2024-11-14 21h56.07.399409 +0530,
0.7,400,exp,157,7,15,space,0.09753350001119543,None,"
1000",1,[5.437363124990952],[5.437366041995119],15,7,157,5,1647.4906477920013,,1647.4827406669938,1647.4906477920013,1649.4824147499894,1650.4768505419925,1651.4758012090024,1651.5768949589983,space,0.09753350001119543,None,1651.5775220419891,0.7059516250010347,1.0056897080066847,1652.5873946249922,1652.5896402090002,1652.6111093340005,1652.6111093340005,1652.6111093340005,1658.0488184999995,"
1000",1,[5.437363124990952],[5.437366041995119],1,001,2024-11-14_21h55.51.674,intentional_bonding,2024.2.4,118.51407009814152,2024-11-14 21h56.07.399409 +0530,
0.7,1000,unexp,158,8,15,space,0.6510182909987634,None,"
900",1,[3.327946791992872],[3.327950166989467],15,8,158,2,1658.0573438749998,,1658.0489393749885,1658.0573438749998,1660.0483768749982,1661.0452854589967,1662.0410255000024,1662.7010180840007,space,0.6510182909987634,None,1662.7018786249973,0.7069575000059558,1.0071267089952016,1663.7132486670016,1663.7155210839992,1663.7372188339941,1663.7372188339941,1663.7372188339941,1667.0654782089987,"
900",1,[3.327946791992872],[3.327950166989467],1,001,2024-11-14_21h55.51.674,intentional_bonding,2024.2.4,118.51407009814152,2024-11-14 21h56.07.399409 +0530,
0.1,1000,unexp,159,9,15,space,0.5409509589953814,None,"
400",1,[2.4301334589981707],[2.4301364590064622],15,9,159,3,1667.074199166993,,1667.0656163749954,1667.074199166993,1669.0659186669945,1670.0609522500017,1671.068037584002,1671.617329959001,space,0.5409509589953814,None,1671.6180307920004,0.10793845799344126,0.4072012079996057,1672.029766791995,1672.031781749989,1672.0520651249972,1672.0520651249972,1672.0520651249972,1674.4825240419887,"
400",1,[2.4301334589981707],[2.4301364590064622],1,001,2024-11-14_21h55.51.674,intentional_bonding,2024.2.4,118.51407009814152,2024-11-14 21h56.07.399409 +0530,
0.7,400,exp,160,0,16,space,1.1331382500065956,None,"
1000",1,[3.052982499997597],[3.052985374990385],16,0,160,5,1674.4906944999966,,1674.4826458339958,1674.4906944999966,1676.481527750002,1677.4781908339937,1678.4744823340006,1679.6101049169956,space,1.1331382500065956,None,1679.6112482919998,0.7049418340029661,1.0055868340132292,1680.6203215419955,1680.6228982920002,1680.645435708997,1680.645435708997,1680.645435708997,1683.6987172919908,"
1000",1,[3.052982499997597],[3.052985374990385],1,001,2024-11-14_21h55.51.674,intentional_bonding,2024.2.4,118.51407009814152,2024-11-14 21h56.07.399409 +0530,
0.4,1000,unexp,161,1,16,space,0.07625804099370725,None,"
200",1,[2.0216709170053946],[2.0216736670117825],16,1,161,1,1683.7072393749986,,1683.6988411669881,1683.7072393749986,1685.6990445419942,1686.6941353339935,1687.6922344999912,1687.7768878339994,space,0.07625804099370725,None,1687.7772999169974,0.4048348330106819,0.7050037080043694,1688.4867669999949,1688.4891418339976,1688.5100709169928,1688.5100709169928,1688.5100709169928,1690.5320794589934,"
200",1,[2.0216709170053946],[2.0216736670117825],1,001,2024-11-14_21h55.51.674,intentional_bonding,2024.2.4,118.51407009814152,2024-11-14 21h56.07.399409 +0530,
0.4,1000,unexp,162,2,16,space,0.4134448330005398,None,"
400",1,[1.5032399999909103],[1.5032430419960292],16,2,162,4,1690.5402294590021,,1690.532209166995,1690.5402294590021,1692.5314220839937,1693.5262987919996,1694.5240742089954,1694.9424148339895,space,0.4134448330005398,None,1694.9434695419914,0.40653104199736845,0.7073146250040736,1695.654421166997,1695.6571593339904,1695.678271375,1695.678271375,1695.678271375,1697.1818107919971,"
400",1,[1.5032399999909103],[1.5032430419960292],1,001,2024-11-14_21h55.51.674,intentional_bonding,2024.2.4,118.51407009814152,2024-11-14 21h56.07.399409 +0530,
0.1,400,exp,163,3,16,space,0.529533499997342,None,"
45",1,[3.654476915995474],[3.6544797079986893],16,3,163,9,1697.1906138339982,,1697.1819304169912,1697.1906138339982,1699.181260583995,1700.1766052500025,1701.1840649590013,1701.7159903749998,space,0.529533499997342,None,1701.7163586669922,0.09968458401272073,0.39965833400492556,1702.1206610419904,1702.123061374994,1702.1438043340022,1702.1438043340022,1702.1438043340022,1705.7985786669888,"
45",1,[3.654476915995474],[3.6544797079986893],1,001,2024-11-14_21h55.51.674,intentional_bonding,2024.2.4,118.51407009814152,2024-11-14 21h56.07.399409 +0530,
0.1,1000,unexp,164,4,16,space,1.5670772090088576,None,"
30",1,[2.7550913329905597],[2.755094249994727],16,4,164,0,1705.8070774590014,,1705.7987012499943,1705.8070774590014,1707.7990131249971,1708.7925347919954,1709.7907917919947,1711.3604629170004,space,1.5670772090088576,None,1711.3609599999909,0.10416724999959115,0.40564383400487714,1711.7696546669904,1711.7718266250013,1711.7925802919926,1711.7925802919926,1711.7925802919926,1714.5480354169995,"
30",1,[2.7550913329905597],[2.755094249994727],1,001,2024-11-14_21h55.51.674,intentional_bonding,2024.2.4,118.51407009814152,2024-11-14 21h56.07.399409 +0530,
0.7,400,exp,165,5,16,space,5.974277667002752,None,"
1000",1,[2.169844042000477],[2.169848291989183],16,5,165,8,1714.5568212090002,,1714.548169709,1714.5568212090002,1716.5478429590003,1717.542318916996,1718.540610333992,1724.5266824589926,space,5.974277667002752,None,1724.52795108399,0.7062683749973075,1.0052919169975212,1725.5370960419968,1725.5396122090024,1725.5613165419927,1725.5613165419927,1725.5613165419927,1727.7314764589973,"
