delay,freq,condition,thisN,thisTrialN,thisRepN,key_resp.keys,key_resp.rt,key_resp.duration,textbox.text,button.numClicks,button.timesOn,button.timesOff,trials.thisRepN,trials.thisTrialN,trials.thisN,trials.thisIndex,thisRow.t,notes,trial.started,Fixation.started,Fixation.stopped,Polygon.started,key_resp.started,trial.stopped,trials.key_resp.keys,trials.key_resp.rt,trials.key_resp.duration,beep.started,sound_1.started,sound_1.stopped,beep.stopped,response.started,display_text.started,textbox.started,button.started,response.stopped,trials.textbox.text,trials.button.numClicks,trials.button.timesOn,trials.button.timesOff,participant,session,date,expName,psychopyVersion,frameRate,expStart,
0.7,400,exp,0,0,0,space,0.5028743330040015,None,"
500",1,[3.1943024170032004],[3.1943062920036027],0,0,0,5,0.043831250004586764,,0.03573325001343619,0.043831250004586764,2.055655250005657,2.9984702080109855,3.9982916670123814,4.522090000013122,space,0.5028743330040015,None,4.5226652920100605,0.706757166000898,1.006719915996655,5.533443917011027,5.536461875002715,5.5682623330067145,5.5682623330067145,5.5682623330067145,8.762958833001903,"
500",1,[3.1943024170032004],[3.1943062920036027],436878,001,2024-11-14_23h30.04.346,intentional_bonding,2024.2.4,118.79365094186684,2024-11-14 23h30.11.711027 +0530,
0.4,1000,unexp,1,1,0,space,0.792957124998793,None,"
200",1,[1.0519018750055693],[1.0519042079977226],0,1,1,4,8.770188542010146,,8.7631364580011,8.770188542010146,10.76168070800486,11.7723050420027,12.754498125010286,13.558414917002665,space,0.792957124998793,None,13.558825208005146,0.4032547499955399,0.7040860410052119,14.266481375001604,14.268681500005187,14.292587750009261,14.292587750009261,14.292587750009261,15.344816167009412,"
200",1,[1.0519018750055693],[1.0519042079977226],436878,001,2024-11-14_23h30.04.346,intentional_bonding,2024.2.4,118.79365094186684,2024-11-14 23h30.11.711027 +0530,
0.1,1000,unexp,2,2,0,space,0.31570383299549576,None,"
40",1,[0.550104084002669],[0.5501075420033885],0,2,2,0,15.353574667009525,,15.344945208009449,15.353574667009525,17.346230792012648,18.338784833002137,19.337372250010958,19.65723591700953,space,0.31570383299549576,None,19.658389250005712,0.10449066599539947,0.4051173750049202,20.068546333000995,20.085167458004435,20.094732042009127,20.094732042009127,20.094732042009127,20.64514725000481,"
40",1,[0.550104084002669],[0.5501075420033885],436878,001,2024-11-14_23h30.04.346,intentional_bonding,2024.2.4,118.79365094186684,2024-11-14 23h30.11.711027 +0530,
0.4,1000,unexp,3,3,0,space,0.0009761669934960082,None,"
200",1,[1.2379326250083977],[1.237935084005585],0,3,3,1,20.653489875010564,,20.645272708003176,20.653489875010564,22.644645750013296,23.639769833011087,24.63715837500058,24.647273375012446,space,0.0009761669934960082,None,24.648225708006066,0.40688283400959335,0.7076407090062276,25.359122583002318,25.36064175001229,25.373363792008604,25.373363792008604,25.373363792008604,26.611600708012702,"
200",1,[1.2379326250083977],[1.237935084005585],436878,001,2024-11-14_23h30.04.346,intentional_bonding,2024.2.4,118.79365094186684,2024-11-14 23h30.11.711027 +0530,
0.1,400,exp,4,4,0,space,0.004821084003197029,None,"
40",1,[3.1953613749938086],[3.1953644579916727],0,4,4,9,26.62004266701115,,26.611728000003495,26.62004266701115,28.61178958301025,29.607855792011833,30.605646500000148,30.615410417012754,space,0.004821084003197029,None,30.615782667009626,0.10625100000470411,0.4059796250076033,31.02666100001079,31.028799000006984,31.050070875004167,31.050070875004167,31.050070875004167,34.24578670800838,"
40",1,[3.1953613749938086],[3.1953644579916727],436878,001,2024-11-14_23h30.04.346,intentional_bonding,2024.2.4,118.79365094186684,2024-11-14 23h30.11.711027 +0530,
0.7,400,exp,5,5,0,space,0.10597154199786019,None,"
45",1,[1.6535591249994468],[1.653562083010911],0,5,5,8,34.253446083006565,,34.245949667005334,34.253446083006565,36.25572725001257,37.25538120800047,38.24733475000539,38.35716345800029,space,0.10597154199786019,None,38.358611875009956,0.7046281249931781,1.0045564169995487,39.366649167001015,39.36896566700307,39.39146670800983,39.39146670800983,39.39146670800983,41.04531758300436,"
45",1,[1.6535591249994468],[1.653562083010911],436878,001,2024-11-14_23h30.04.346,intentional_bonding,2024.2.4,118.79365094186684,2024-11-14 23h30.11.711027 +0530,
0.1,400,exp,6,6,0,space,0.32696258400392253,None,"
30",1,[1.5395675410109106],[1.5395704160036985],0,6,6,6,41.05326016701292,,41.045457667001756,41.05326016701292,43.04406020800525,44.04096304200357,45.036974750008085,45.37283733300865,space,0.32696258400392253,None,45.373304375010775,0.10456558299483731,0.40717033299733885,45.78229254200414,45.784049292007694,45.80425733300217,45.80425733300217,45.80425733300217,47.3441206250136,"
30",1,[1.5395675410109106],[1.5395704160036985],436878,001,2024-11-14_23h30.04.346,intentional_bonding,2024.2.4,118.79365094186684,2024-11-14 23h30.11.711027 +0530,
0.7,1000,unexp,7,7,0,space,0.22826345899375156,None,"
10",1,[1.2545905419974588],[1.2545940419950057],0,7,7,2,47.353556166999624,,47.344234708012664,47.353556166999624,49.34511691700027,50.33880358301394,51.33693858300103,51.572351417009486,space,0.22826345899375156,None,51.572732292013825,0.706307000000379,1.0054269999964163,52.58280287501111,52.58531750000839,52.60598416700668,52.60598416700668,52.60598416700668,53.86086054200132,"
10",1,[1.2545905419974588],[1.2545940419950057],436878,001,2024-11-14_23h30.04.346,intentional_bonding,2024.2.4,118.79365094186684,2024-11-14 23h30.11.711027 +0530,
0.4,400,exp,8,8,0,space,33.465698917003465,None,"
500",1,[1.9339428329985822],[1.9339462920033839],0,8,8,7,53.870293042011326,,53.860987375010154,53.870293042011326,55.87179741701402,56.87201766700309,57.85378383300849,91.34200870800123,space,33.465698917003465,None,91.34526770800585,0.40188591698824894,0.7018757499899948,92.0492540000123,92.0540352500102,92.07942995800113,92.07942995800113,92.07942995800113,94.01381533300446,"
500",1,[1.9339428329985822],[1.9339462920033839],436878,001,2024-11-14_23h30.04.346,intentional_bonding,2024.2.4,118.79365094186684,2024-11-14 23h30.11.711027 +0530,
0.1,1000,unexp,9,9,0,space,0.965415041995584,None,"
30",1,[1.4394714170048246],[1.4394748750055442],0,9,9,3,94.01964358300029,,94.01438487500127,94.01964358300029,96.02160616700712,97.02367991700885,98.05624325000099,99.02314562500396,space,0.965415041995584,None,99.02361375000328,0.11517483300121967,0.42174224999325816,99.44549958300195,99.44685120800568,99.47008416701283,99.47008416701283,99.47008416701283,100.90995112500968,"
30",1,[1.4394714170048246],[1.4394748750055442],436878,001,2024-11-14_23h30.04.346,intentional_bonding,2024.2.4,118.79365094186684,2024-11-14 23h30.11.711027 +0530,
0.7,1000,unexp,10,0,1,space,1.445219500004896,None,"
100",1,[1.7256587080046302],[1.7256613330100663],1,0,10,2,100.91978716700396,,100.91008679200604,100.91978716700396,102.91167033300735,103.90533908300858,104.9039839580073,106.35489733300346,space,1.445219500004896,None,106.35622350001358,0.6997554169938667,0.999466624998604,107.35975820801104,107.36227320801117,107.38472962500236,107.38472962500236,107.38472962500236,109.11071395801264,"
100",1,[1.7256587080046302],[1.7256613330100663],436878,001,2024-11-14_23h30.04.346,intentional_bonding,2024.2.4,118.79365094186684,2024-11-14 23h30.11.711027 +0530,
0.7,400,exp,11,1,1,space,0.4368882919952739,None,"
90",1,[1.9603922500100452],[1.960395125002833],1,1,11,5,109.11956591700437,,109.11087308300193,109.11956591700437,111.11207379201369,112.10509708301106,113.10405533300946,113.54833358300675,space,0.4368882919952739,None,113.54937379200419,0.7050410000083502,1.0056106250121957,114.55886341701262,114.56130154200946,114.58376154200232,114.58376154200232,114.58376154200232,116.54446520800411,"
90",1,[1.9603922500100452],[1.960395125002833],436878,001,2024-11-14_23h30.04.346,intentional_bonding,2024.2.4,118.79365094186684,2024-11-14 23h30.11.711027 +0530,
0.1,1000,unexp,12,2,1,space,0.09086583400494419,None,"
45",1,[1.2094734999991488],[1.2094760830077576],1,2,12,0,116.55268195801182,,116.54458991700085,116.55268195801182,118.54359433300851,119.55421775000286,120.5363417500048,120.62925870800973,space,0.09086583400494419,None,120.62981337500969,0.1084564170014346,0.4075899169984041,121.04169204201025,121.04393120801251,121.06738345800841,121.06738345800841,121.06738345800841,122.2771820420021,"
45",1,[1.2094734999991488],[1.2094760830077576],436878,001,2024-11-14_23h30.04.346,intentional_bonding,2024.2.4,118.79365094186684,2024-11-14 23h30.11.711027 +0530,
0.4,1000,unexp,13,3,1,space,0.06860204199620057,None,"
24",1,[1.9563610829936806],[1.9563634579972131],1,3,13,4,122.28626274999988,,122.27731979200325,122.28626274999988,124.27711158301099,125.27190041700669,126.26982141700864,126.34548458301288,space,0.06860204199620057,None,126.34590695801307,0.4090517080039717,0.7157862500025658,127.06207900001027,127.06382741700509,127.08760508301202,127.08760508301202,127.08760508301202,129.044270917002,"
24",1,[1.9563610829936806],[1.9563634579972131],436878,001,2024-11-14_23h30.04.346,intentional_bonding,2024.2.4,118.79365094186684,2024-11-14 23h30.11.711027 +0530,
0.1,400,exp,14,4,1,space,15.190702666994184,None,"
57",1,[1.127416709001409],[1.1274192919954658],1,4,14,6,129.05253200000152,,129.0443910000031,129.05253200000152,131.04421879201254,132.03949570801342,133.03792058301042,148.23061954200966,space,15.190702666994184,None,148.2314885000087,0.10694662500463892,0.40633954100485425,148.64255370800674,148.64461329201004,148.66649954199966,148.66649954199966,148.66649954199966,149.79424491700775,"
57",1,[1.127416709001409],[1.1274192919954658],436878,001,2024-11-14_23h30.04.346,intentional_bonding,2024.2.4,118.79365094186684,2024-11-14 23h30.11.711027 +0530,
0.1,400,exp,15,5,1,space,0.24133437500859145,None,"
24",1,[1.1115322499972535],[1.111535707997973],1,5,15,9,149.80271358300524,,149.79437500001222,149.80271358300524,151.79467250000744,152.78881270800775,153.7868819580035,154.0306175420119,space,0.24133437500859145,None,154.03174366700114,0.10658212500857189,0.40577583300182596,154.44160083300085,154.4437570420123,154.46492437500274,154.46492437500274,154.46492437500274,155.5767713330133,"
24",1,[1.1115322499972535],[1.111535707997973],436878,001,2024-11-14_23h30.04.346,intentional_bonding,2024.2.4,118.79365094186684,2024-11-14 23h30.11.711027 +0530,
0.4,400,exp,16,6,1,space,1.9036064160027308,None,"
6u",1,[2.5125164999917615],[2.512520249991212],1,6,16,7,155.58596020800178,,155.57690079200256,155.58596020800178,157.57827645800717,158.57301300000108,159.57110825000564,161.481534208011,space,1.9036064160027308,None,161.482949000012,0.4046588750061346,0.7048187920008786,162.1918257500074,162.19399695801258,162.21453254201333,162.21453254201333,162.21453254201333,164.72738845800632,"
6u",1,[2.5125164999917615],[2.512520249991212],436878,001,2024-11-14_23h30.04.346,intentional_bonding,2024.2.4,118.79365094186684,2024-11-14 23h30.11.711027 +0530,
0.4,1000,unexp,17,7,1,space,0.12217029200110119,None,"
95",1,[2.7075029159896076],[2.7075053329899674],1,7,17,1,164.73591775000386,,164.7275123330037,164.73591775000386,166.72660500000347,167.7237276250089,168.71976979200554,168.8466767080099,space,0.12217029200110119,None,168.84779995800636,0.4062064589961665,0.7075910419953289,169.5577340000018,169.55996066700027,169.58595700000296,169.58595700000296,169.58595700000296,172.29375466700003,"
95",1,[2.7075029159896076],[2.7075053329899674],436878,001,2024-11-14_23h30.04.346,intentional_bonding,2024.2.4,118.79365094186684,2024-11-14 23h30.11.711027 +0530,
0.7,400,exp,18,8,1,space,0.5350729999918258,None,"
45",1,[1.1881105829961598],[1.1881142500060378],1,8,18,8,172.30242958301096,,172.29388150000887,172.30242958301096,174.29535933300212,175.28932225001336,176.28603416700207,176.82533162500476,space,0.5350729999918258,None,176.82654933301092,0.7017373330018017,1.0014377499901457,177.8316560000094,177.83397929200146,177.8553350000002,177.8553350000002,177.8553350000002,179.0437754170125,"
45",1,[1.1881105829961598],[1.1881142500060378],436878,001,2024-11-14_23h30.04.346,intentional_bonding,2024.2.4,118.79365094186684,2024-11-14 23h30.11.711027 +0530,
0.1,1000,unexp,19,9,1,space,0.7051041250088019,None,"
85",1,[6.403579915990122],[6.403582457991433],1,9,19,3,179.05237500001385,,179.0439120420051,179.05237500001385,181.04513491700345,182.03952908300562,183.0362387500063,183.75636287500674,space,0.7051041250088019,None,183.75768750000861,0.10444479099533055,0.4046877499931725,184.16614291700535,184.1686127080029,184.18973825000285,184.18973825000285,184.18973825000285,190.59363870800007,"
85",1,[6.403579915990122],[6.403582457991433],436878,001,2024-11-14_23h30.04.346,intentional_bonding,2024.2.4,118.79365094186684,2024-11-14 23h30.11.711027 +0530,
0.4,400,exp,20,0,2,space,1.7689008750021458,None,"
58",1,[1.495203375001438],[1.4952057920017978],2,0,20,7,190.6022455420025,,190.59376358300506,190.6022455420025,192.59444850000727,193.6037652080122,194.58762754200143,196.3630005830055,space,1.7689008750021458,None,196.3639697500039,0.4064841250074096,0.7062819999991916,197.0744677920011,197.07646783300152,197.09825658300542,197.09825658300542,197.09825658300542,198.59377158300777,"
58",1,[1.495203375001438],[1.4952057920017978],436878,001,2024-11-14_23h30.04.346,intentional_bonding,2024.2.4,118.79365094186684,2024-11-14 23h30.11.711027 +0530,
0.7,400,exp,21,1,2,space,0.46807704199454747,None,"
46",1,[0.7118311249942053],[0.7118341250024969],2,1,21,5,198.6022597500123,,198.59389429200382,198.6022597500123,200.59301804201095,201.58743120801228,202.58662620800897,203.0649142080074,space,0.46807704199454747,None,203.06527683300374,0.7043748750002123,1.0047071669978322,204.07456583301246,204.07692554200185,204.09786537500622,204.09786537500622,204.09786537500622,204.81000554200727,"
46",1,[0.7118311249942053],[0.7118341250024969],436878,001,2024-11-14_23h30.04.346,intentional_bonding,2024.2.4,118.79365094186684,2024-11-14 23h30.11.711027 +0530,
0.1,400,exp,22,2,2,space,2.475560332997702,None,"
40",1,[1.1878483750042506],[1.1878508750087349],2,2,22,9,204.8188186250045,,204.81013024999993,204.8188186250045,206.81192087501404,207.80572012500488,208.80263879201084,211.28932854199957,space,2.475560332997702,None,211.29063262500858,0.10525904200039804,0.4053569579991745,211.69950141700974,211.70174408300954,211.72196679199988,211.72196679199988,211.72196679199988,212.91015770800004,"
40",1,[1.1878483750042506],[1.1878508750087349],436878,001,2024-11-14_23h30.04.346,intentional_bonding,2024.2.4,118.79365094186684,2024-11-14 23h30.11.711027 +0530,
0.4,1000,unexp,23,3,2,space,9.281212791989674,None,"
47",1,[3.1302622080111178],[3.1302653330058092],2,3,23,1,212.9187477920059,,212.91028612501395,212.9187477920059,214.90948700001172,215.9049207920034,216.90243858301255,226.1861908330029,space,9.281212791989674,None,226.18661629200506,0.40095491601096,0.7068075410061283,226.89356037499965,226.89502908301074,226.9126901670097,226.9126901670097,226.9126901670097,230.04326566700183,"
47",1,[3.1302622080111178],[3.1302653330058092],436878,001,2024-11-14_23h30.04.346,intentional_bonding,2024.2.4,118.79365094186684,2024-11-14 23h30.11.711027 +0530,
0.1,1000,unexp,24,4,2,space,0.40777874999912456,None,"
30",1,[0.8630120409943629],[0.8630150829994818],2,4,24,0,230.05221154200262,,230.0433911250002,230.05221154200262,232.0447204580123,233.0381259170099,234.04461020800227,234.45427008300612,space,0.40777874999912456,None,234.45471716701286,0.09909308300120756,0.3982869579922408,234.85776454200095,234.85979770800623,234.88016929200967,234.88016929200967,234.88016929200967,235.7435081670119,"
30",1,[0.8630120409943629],[0.8630150829994818],436878,001,2024-11-14_23h30.04.346,intentional_bonding,2024.2.4,118.79365094186684,2024-11-14 23h30.11.711027 +0530,
0.7,1000,unexp,25,5,2,space,0.9072588749986608,None,"
56",1,[2.0343921669991687],[2.0343947500077775],2,5,25,2,235.75192808300199,,235.74363620800432,235.75192808300199,237.74311225001293,238.7380458330008,239.73761870800809,240.65563891700003,space,0.9072588749986608,None,240.6567415830068,0.7051144169963663,1.0055761249968782,241.6662412500009,241.66932158300187,241.69209833300556,241.69209833300556,241.69209833300556,243.726819042,"
56",1,[2.0343921669991687],[2.0343947500077775],436878,001,2024-11-14_23h30.04.346,intentional_bonding,2024.2.4,118.79365094186684,2024-11-14 23h30.11.711027 +0530,
0.4,1000,unexp,26,6,2,space,0.35948041699884925,None,"
38",1,[2.3117705829936313],[2.3117729579971638],2,6,26,4,243.73522120800044,,243.7269500830007,243.73522120800044,245.72644166700775,246.73680475000583,247.73031725001056,248.09730295800546,space,0.35948041699884925,None,248.09806675001164,0.4055794589949073,0.7050857919966802,248.8079148750112,248.81039300000702,248.83137012500083,248.83137012500083,248.83137012500083,251.14346650001244,"
38",1,[2.3117705829936313],[2.3117729579971638],436878,001,2024-11-14_23h30.04.346,intentional_bonding,2024.2.4,118.79365094186684,2024-11-14 23h30.11.711027 +0530,
0.1,400,exp,27,7,2,space,2.895160542000667,None,"
900",1,[2.251514125004178],[2.2515166250086622],2,7,27,6,251.15197245801392,,251.1435887920088,251.15197245801392,253.14318050000293,254.13890933300718,255.13672779200715,258.03921616700245,space,2.895160542000667,None,258.0395758750092,0.10447425000893418,0.4046544169978006,258.4487859580113,258.4508873750019,258.47460300000967,258.47460300000967,258.47460300000967,260.7264713750046,"
900",1,[2.251514125004178],[2.2515166250086622],436878,001,2024-11-14_23h30.04.346,intentional_bonding,2024.2.4,118.79365094186684,2024-11-14 23h30.11.711027 +0530,
0.1,1000,unexp,28,8,2,space,0.16918858399731107,None,"
35",1,[1.3004382499930216],[1.3004407919943333],2,8,28,3,260.73530062500504,,260.7265980830125,260.73530062500504,262.7280360420118,263.7210127920116,264.7187016670068,264.89536979200784,space,0.16918858399731107,None,264.8957386250113,0.10051400000520516,0.40705458300362807,265.3033219580102,265.3054022080032,265.3258521670068,265.3258521670068,265.3258521670068,266.62664287500957,"
35",1,[1.3004382499930216],[1.3004407919943333],436878,001,2024-11-14_23h30.04.346,intentional_bonding,2024.2.4,118.79365094186684,2024-11-14 23h30.11.711027 +0530,
0.7,400,exp,29,9,2,space,0.05347487499238923,None,"
49",1,[2.7685759580053855],[2.7685791660042014],2,9,29,8,266.6351290830062,,266.62676750001265,266.6351290830062,268.62785929201345,269.622325208009,270.6198012500099,270.6781268330087,space,0.05347487499238923,None,270.6784940420039,0.6996830000134651,0.9994699170056265,271.68292083300184,271.6853492920054,271.70773900000495,271.70773900000495,271.70773900000495,274.47666325001046,"
49",1,[2.7685759580053855],[2.7685791660042014],436878,001,2024-11-14_23h30.04.346,intentional_bonding,2024.2.4,118.79365094186684,2024-11-14 23h30.11.711027 +0530,
